timestamp_us,ecg,leads,ir,red,accX,accY,accZ,gyroX,gyroY,gyroZ,temp
1919492,1678,1,196100,237290,0.00,0.00,0.00,0.00,0.00,0.00,0.00
1949963,919,1,195438,237584,0.72,-1.82,8.92,-0.01,0.02,0.08,25.41
1990170,249,1,195564,238347,0.88,-1.32,9.12,-0.01,0.03,-0.00,25.41
2030173,261,1,196296,240559,0.07,-1.18,9.65,-0.02,0.10,0.01,25.41
2070162,357,1,196125,239474,0.26,-0.96,8.96,0.00,-0.02,0.02,25.41
2110161,354,1,196234,240779,0.14,-1.06,10.15,0.01,0.03,0.00,25.41
2150143,407,1,196370,241841,0.19,-1.08,9.93,-0.01,0.02,0.00,25.41
2190161,358,1,196772,242542,-0.27,-1.37,10.57,-0.04,0.05,0.00,25.41
2230176,275,1,196609,242985,0.48,-1.07,10.64,-0.02,-0.04,0.00,25.41
2270173,272,1,196633,243280,0.05,-1.30,10.53,-0.07,0.04,-0.00,25.41
2310175,583,1,196487,243404,0.57,-1.86,10.32,-0.09,-0.03,-0.01,25.41
2350194,626,1,196664,243606,-0.25,-1.60,11.40,-0.06,0.08,0.00,25.41
2390175,802,1,196626,243111,0.27,-0.56,11.06,-0.03,0.00,-0.00,25.41
2430172,1005,1,196672,243479,0.07,-1.08,11.03,-0.06,0.02,-0.00,25.41
2470175,1136,1,196910,243697,0.25,-0.99,10.72,-0.07,0.03,-0.01,25.41
2510174,1138,1,196921,243287,0.15,-1.11,10.42,-0.09,-0.01,-0.01,25.41
2548196,879,1,196533,241663,-0.31,-1.22,10.24,-0.06,0.03,-0.01,25.41
2588197,493,1,195991,240909,0.06,-0.90,9.23,-0.10,-0.02,-0.01,25.41
2628207,675,1,196138,240175,0.43,-0.98,9.49,-0.06,-0.01,-0.01,25.41
2668193,1456,1,196003,241002,0.99,-1.28,8.88,-0.08,-0.05,-0.02,25.41
2708194,1793,1,196562,241452,0.37,-1.63,8.48,-0.08,0.03,-0.01,25.41
2748173,1997,1,196541,241454,0.78,-0.57,9.53,-0.01,-0.03,-0.10,25.41
2788194,2131,1,196260,238988,-0.02,-1.49,6.88,-0.08,-0.02,0.00,25.41
2828193,2559,1,195824,238241,0.84,-2.57,9.90,0.01,-0.05,0.01,25.41
2868162,2597,1,195689,239212,0.04,-1.87,7.62,-0.03,0.00,0.00,25.41
2908162,1609,1,197246,242916,0.28,-1.96,11.85,0.04,0.11,0.01,25.41
2948142,1821,1,197066,241838,-0.69,-1.30,7.92,-0.05,0.04,0.11,25.41
2988861,1822,1,197805,243850,0.56,-2.13,12.12,0.06,-0.04,-0.01,25.49
3029175,1702,1,197611,245268,-0.08,-2.13,9.43,0.01,-0.12,0.01,25.49
3069174,1793,1,199406,247569,-0.18,-3.30,12.36,0.02,0.02,-0.01,25.49
3109175,1712,1,199335,247119,-0.17,-0.72,10.95,-0.00,-0.03,0.00,25.49
3149194,1711,1,198698,246052,-0.02,-1.37,12.08,0.01,-0.13,-0.02,25.49
3189196,1697,1,197575,242469,0.26,-0.70,10.78,-0.03,-0.07,-0.01,25.49
3229194,1696,1,196235,243623,0.19,-1.56,11.06,0.08,-0.17,-0.05,25.49
3269174,1695,1,196984,242412,0.73,-0.06,9.36,-0.11,-0.05,-0.01,25.49
3309193,1894,1,196400,243504,0.63,-1.43,9.52,0.00,-0.10,-0.03,25.49
3349175,1920,1,197164,243199,0.58,-0.26,9.33,0.00,-0.03,0.01,25.49
3389162,1885,1,196548,244037,0.64,-1.63,9.35,0.00,-0.10,0.10,25.49
3429161,1776,1,196743,243469,0.35,-0.98,10.27,-0.04,0.05,0.02,25.49
3469161,1877,1,196013,242430,0.48,-0.35,9.07,0.00,-0.08,0.01,25.49
3509162,1979,1,195786,242651,0.83,-0.78,10.59,0.00,-0.01,0.01,25.49
3549161,2157,1,195953,243224,0.65,-0.28,8.46,0.00,-0.05,0.00,25.49
3589161,2032,1,196399,244159,1.04,-1.20,9.27,-0.02,0.00,0.00,25.49
3629161,1974,1,196634,243653,0.70,-0.75,8.72,-0.03,0.02,0.00,25.49
3669161,1943,1,196543,243008,1.09,-1.12,8.91,-0.01,-0.03,0.00,25.49
3709173,1938,1,196228,241845,0.94,0.21,9.30,-0.00,0.01,0.01,25.49
3749141,2151,1,196056,242534,1.12,-1.01,9.96,-0.00,0.00,0.01,25.49
3789162,2195,1,196450,241872,0.49,-0.25,9.59,-0.03,0.03,0.00,25.49
3827162,2188,1,195868,241371,0.55,-1.20,10.67,-0.02,0.01,0.01,25.49
3867161,2112,1,195765,241273,0.73,-0.16,10.19,-0.01,-0.06,0.00,25.49
3907175,2032,1,196105,243132,0.45,-0.74,10.78,-0.04,-0.00,0.01,25.49
3947173,1999,1,196574,243843,0.90,-0.95,10.92,-0.05,-0.02,0.00,25.49
3987175,1933,1,196804,243364,0.05,-1.01,10.29,-0.07,0.01,0.01,25.49
4027897,1917,1,196523,244253,0.68,-1.83,10.96,-0.05,-0.08,0.01,25.37
4068175,1763,1,196762,243663,0.60,-0.54,10.23,-0.05,-0.02,0.01,25.37
4108173,1659,1,196651,244314,0.54,-0.73,10.93,-0.04,-0.03,0.01,25.37
4148175,1535,1,196941,244105,0.22,-1.03,9.62,-0.09,0.03,0.01,25.37
4188162,1403,1,196950,244065,0.03,-1.19,9.79,-0.05,0.02,0.02,25.37
4228161,1321,1,196606,242558,0.11,-1.74,8.20,-0.09,-0.05,0.02,25.37
4268206,1269,1,196121,243212,0.72,-1.22,9.22,-0.07,-0.02,0.01,25.37
4308175,1191,1,196722,242620,0.13,-0.91,8.95,-0.05,0.09,0.01,25.37
4348162,1729,1,196033,241904,0.44,-1.51,7.81,-0.05,0.00,0.01,25.37
4388161,1706,1,196192,241332,0.73,-1.09,9.16,-0.04,0.03,0.04,25.37
4428161,1707,1,195586,239360,0.15,-0.83,8.32,-0.03,0.01,0.07,25.37
4468196,1694,1,194912,236708,0.51,-0.75,9.29,-0.03,0.05,0.01,25.37
4508161,1925,1,194418,236299,-0.04,-1.96,8.97,-0.03,0.02,0.08,25.37
4548175,2011,1,194462,236194,0.43,-0.43,8.90,-0.04,0.03,-0.00,25.37
4588172,2018,1,194461,236384,0.29,-1.29,9.14,-0.02,0.06,0.04,25.37
4628162,1959,1,194582,237444,1.06,-0.62,10.45,-0.01,0.03,-0.00,25.37
4668173,1814,1,195356,240179,0.41,-0.95,11.08,-0.01,0.06,-0.00,25.37
4708175,1665,1,195659,240478,0.17,-1.10,10.28,-0.04,0.01,-0.00,25.37
4748173,1607,1,195915,241161,-0.04,-0.68,11.37,-0.01,0.04,0.00,25.37
4788175,1667,1,195914,241600,0.30,-0.76,11.68,-0.02,-0.02,-0.00,25.37
4828193,1679,1,196115,242816,0.62,-0.77,12.61,-0.05,-0.05,-0.01,25.37
4868196,1619,1,196307,242450,0.11,-2.05,10.64,-0.07,-0.09,-0.01,25.37
4908194,1600,1,196138,242748,-0.12,-1.10,9.79,-0.10,-0.06,-0.00,25.37
4948211,1494,1,196604,241875,0.36,-1.73,9.42,-0.05,-0.06,-0.01,25.37
4988194,1495,1,196112,242729,0.50,-1.07,10.16,-0.06,-0.03,-0.01,25.37
5028883,1425,1,196968,243694,0.06,-2.49,10.38,-0.03,-0.00,-0.19,25.37
5067194,1811,1,196423,240332,0.14,-0.72,9.06,-0.03,-0.07,-0.03,25.37
5108196,1710,1,195443,238456,-0.21,-2.38,9.67,-0.04,-0.04,0.01,25.37
5146193,1702,1,194576,237123,0.56,-0.39,8.82,0.02,-0.13,0.01,25.37
5186162,1712,1,195321,240333,-0.35,-2.92,10.01,0.04,-0.03,0.07,25.37
5226173,1774,1,195251,238352,1.16,-0.79,8.64,0.00,-0.16,0.00,25.37
5266162,1712,1,195826,241289,-0.00,-1.30,10.50,0.02,0.05,0.03,25.37
5306162,1699,1,195667,239323,0.74,-1.14,8.83,0.01,-0.09,0.00,25.37
5346162,1711,1,195503,240109,0.23,-0.89,10.80,0.05,0.01,0.01,25.37
5386141,1712,1,195570,240093,0.49,-0.62,9.87,0.04,-0.04,0.00,25.37
5426162,1712,1,195932,241200,0.32,-0.73,10.57,0.02,0.01,0.00,25.37
5466141,1897,1,196336,242171,0.17,-0.83,10.19,0.01,0.00,-0.00,25.37
5506241,1959,1,196356,241928,0.62,-0.65,9.48,-0.04,-0.07,-0.01,25.37
5546193,1968,1,196556,243340,0.57,-1.14,10.18,-0.03,0.03,-0.01,25.37
5586175,1871,1,196626,242357,0.68,-0.48,8.88,-0.05,0.00,-0.02,25.37
5626173,1800,1,196520,242588,0.78,-0.94,10.39,-0.04,0.07,-0.01,25.37
5666173,1638,1,196419,241549,0.33,-1.36,9.06,-0.03,0.03,-0.00,25.37
5706173,1405,1,195840,238926,0.31,-0.40,9.61,-0.04,0.02,-0.00,25.37
5746173,1195,1,195384,239186,0.31,-1.28,10.08,-0.06,0.02,-0.01,25.37
5786173,1953,1,195437,239165,0.36,-0.79,9.74,-0.07,-0.01,-0.01,25.37
5826194,1756,1,195462,240435,0.32,-1.34,10.42,-0.06,-0.03,-0.01,25.37
5866193,1746,1,195561,239486,0.62,-0.74,9.25,-0.07,-0.03,-0.01,25.37
5906211,1703,1,195684,241365,0.22,-1.64,9.59,-0.09,0.03,-0.01,25.37
5946173,1815,1,196297,240792,0.23,-1.66,9.86,-0.08,0.05,-0.01,25.37
5986176,1773,1,195792,239714,0.34,-1.07,9.95,-0.07,-0.02,-0.01,25.37
6026199,1751,1,195698,239776,0.08,-1.71,9.78,-0.06,0.01,-0.01,25.37
6066861,1694,1,195403,238889,0.23,-0.68,9.78,-0.06,-0.01,-0.01,25.37
6107220,1687,1,195433,239665,-0.09,-1.92,9.85,-0.08,0.05,-0.01,25.37
6147197,1693,1,195641,239963,0.13,-1.07,9.95,-0.05,0.03,-0.01,25.37
6187174,1710,1,195911,241123,-0.06,-1.63,9.89,-0.05,0.04,-0.00,25.37
6227197,1697,1,195856,241415,0.47,-1.09,10.04,-0.06,0.03,-0.01,25.37
6267173,1736,1,196225,242646,-0.14,-1.67,10.23,-0.05,0.04,-0.01,25.37
6307197,1695,1,196387,241975,0.12,-1.09,10.32,-0.05,0.02,-0.01,25.37
6347173,1693,1,195902,239994,-0.27,-1.07,10.74,-0.04,0.03,-0.01,25.37
6387196,1689,1,195564,240953,-0.12,-1.02,10.62,-0.04,0.02,-0.02,25.37
6427194,1731,1,195627,239964,0.44,-0.66,10.08,-0.05,-0.04,-0.02,25.37
6467197,1691,1,195657,241347,0.28,-1.65,10.48,-0.04,-0.02,-0.02,25.37
6505194,1692,1,195769,240320,0.40,-1.10,9.12,-0.08,-0.02,-0.03,25.37
6545196,1691,1,196218,242293,0.25,-1.53,11.03,-0.01,-0.01,-0.01,25.37
6585194,1674,1,195757,239660,0.86,-0.64,8.89,-0.07,-0.11,-0.03,25.37
6625196,1534,1,195931,242243,0.39,-1.43,10.61,-0.02,-0.02,-0.01,25.37
6665193,1414,1,196248,241158,0.24,-0.74,9.01,-0.03,-0.05,-0.04,25.37
6705194,1707,1,196344,242545,-0.02,-0.55,10.02,-0.03,0.01,-0.02,25.37
6745193,1869,1,196405,241368,0.48,-1.07,10.21,0.01,-0.07,-0.01,25.37
6785175,1681,1,196117,242744,0.10,-2.22,9.17,-0.02,-0.07,-0.01,25.37
6825193,1803,1,196810,242193,0.65,-1.55,10.24,-0.01,-0.06,-0.01,25.37
6865197,1769,1,196465,242860,-0.18,-2.12,9.62,0.03,-0.05,-0.00,25.37
6905194,1824,1,196744,240569,0.13,-1.19,9.93,-0.02,-0.01,-0.12,25.37
6945196,1682,1,195649,240020,-0.28,-2.53,10.83,0.04,-0.09,0.00,25.37
6985173,1779,1,195858,239695,-0.09,-1.26,9.80,0.01,-0.05,-0.01,25.37
7025224,1772,1,196231,242550,-0.39,-1.90,10.68,0.01,-0.01,-0.00,25.37
7065194,1887,1,196755,242909,0.27,-0.42,9.88,-0.03,0.00,-0.16,25.37
7105863,1825,1,196918,242760,-0.09,-0.59,11.70,0.02,-0.04,-0.06,25.41
7146194,1703,1,196125,242289,0.26,-1.06,10.09,-0.02,-0.06,-0.01,25.41
7186197,1703,1,196322,242199,0.33,-0.60,10.70,-0.02,0.01,-0.01,25.41
7226173,1701,1,195745,240385,0.66,-1.22,10.21,-0.03,-0.03,-0.01,25.41
7266196,1697,1,195336,238995,0.58,-1.01,8.83,-0.05,-0.09,-0.01,25.41
7306195,1705,1,195483,238957,0.37,-0.88,8.92,-0.04,0.05,-0.01,25.41
7346176,1692,1,195511,240740,0.72,-0.89,9.05,-0.03,-0.03,-0.01,25.41
7386195,1983,1,196230,241161,0.91,-1.27,9.41,-0.03,0.01,-0.13,25.41
7426176,1947,1,196107,241241,0.57,-0.95,9.22,-0.04,0.00,-0.06,25.41
7466173,1895,1,195977,240033,0.91,-0.32,9.28,-0.02,-0.07,-0.03,25.41
7506196,1680,1,195761,241728,0.42,-0.93,10.02,0.02,-0.01,-0.02,25.41
7546207,1872,1,196207,241311,0.61,-0.83,9.46,-0.01,-0.02,-0.01,25.41
7586197,1827,1,195915,241590,0.59,-1.14,10.07,-0.01,-0.01,-0.00,25.41
7626195,1910,1,196478,241745,0.27,-1.47,9.25,-0.03,0.00,-0.01,25.41
7666177,1872,1,196536,242472,0.52,-0.63,10.45,-0.02,-0.02,-0.01,25.41
7706195,2111,1,196803,242944,0.43,-0.93,10.69,-0.02,-0.01,-0.01,25.41
7746201,1982,1,196835,243530,0.36,-1.41,10.52,-0.04,-0.01,-0.00,25.41
7786195,1989,1,196968,242882,0.26,-1.33,10.64,-0.01,-0.03,-0.00,25.41
7824196,1820,1,196356,242617,0.58,-0.79,10.12,-0.05,-0.06,-0.01,25.41
7864196,2005,1,196687,242708,0.34,-1.02,10.43,-0.04,-0.01,-0.01,25.41
7904197,2002,1,196775,242933,0.34,-0.95,10.12,-0.06,0.00,-0.01,25.41
7944176,1995,1,197077,242974,0.01,-1.64,9.94,-0.06,0.02,0.00,25.41
7984162,1875,1,197145,243340,0.07,-1.14,9.99,-0.02,0.00,-0.00,25.41
8024194,2287,1,197110,243828,0.72,-1.10,10.04,-0.04,-0.03,-0.01,25.41
8064197,2235,1,197334,244564,0.53,-1.09,10.64,-0.04,-0.01,-0.01,25.41
8104197,2081,1,197212,244811,0.38,-1.10,9.84,-0.04,0.00,-0.00,25.41
8144863,2030,1,197215,242896,0.22,-0.80,9.56,-0.04,0.01,-0.00,25.29
8184176,2061,1,195853,240510,0.66,-0.74,9.70,-0.04,-0.03,-0.01,25.29
8224196,1981,1,195958,240954,0.36,-1.29,9.15,-0.07,0.02,-0.01,25.29
8264175,2000,1,196205,242162,0.85,-0.92,9.36,-0.06,-0.01,-0.01,25.29
8304197,1919,1,196919,243206,0.40,-1.27,9.52,-0.04,0.00,-0.00,25.29
8344175,2063,1,196395,243334,1.15,-0.82,9.39,-0.04,-0.07,-0.01,25.29
8384197,1968,1,197166,244661,0.29,-1.25,9.60,-0.02,-0.03,-0.00,25.29
8424195,1920,1,196834,244832,0.98,-0.62,9.53,-0.03,-0.06,-0.01,25.29
8464197,1936,1,198090,246305,-0.23,-1.53,9.97,-0.03,0.09,0.00,25.29
8504175,1999,1,197778,246314,0.77,-0.62,9.27,-0.02,-0.03,-0.02,25.29
8544197,1906,1,198470,246865,0.45,-1.33,10.08,-0.01,0.00,-0.07,25.29
8584175,1904,1,198145,247335,0.62,-1.39,9.29,-0.04,-0.07,-0.02,25.29
8624197,1825,1,198659,247149,0.39,-1.48,10.53,0.01,0.02,-0.11,25.29
8664162,2130,1,198358,247486,0.23,-0.96,9.90,-0.03,-0.05,0.01,25.29
8704175,2023,1,198364,246502,0.33,-1.54,10.63,-0.01,-0.01,0.04,25.29
8744176,1941,1,197476,246160,0.10,-0.98,9.95,-0.01,-0.07,0.00,25.29
8784176,1950,1,197628,245562,0.24,-1.11,10.95,-0.04,0.00,-0.00,25.29
8824176,1961,1,196823,244840,0.16,-0.53,9.99,-0.05,-0.02,-0.01,25.29
8864197,1988,1,196966,243575,0.45,-1.18,10.10,-0.05,-0.01,0.00,25.29
8904173,1731,1,195858,243785,0.74,-0.87,9.39,-0.03,-0.07,0.00,25.29
8944176,1808,1,196685,244337,0.65,-0.84,9.30,-0.06,0.00,-0.00,25.29
8984176,1986,1,196543,245069,0.41,-0.76,9.94,-0.05,0.00,-0.01,25.29
9024199,1933,1,196789,244122,0.23,-0.59,10.61,-0.03,0.02,-0.01,25.29
9064174,1755,1,196127,244172,0.09,-0.74,9.65,-0.02,-0.06,-0.00,25.29
9104197,1670,1,196375,244503,0.70,-0.84,9.40,-0.05,-0.02,-0.01,25.29
9144881,1674,1,196488,245176,0.73,-0.79,9.72,-0.06,0.00,-0.01,25.31
9184218,1776,1,196779,244549,0.66,-1.03,9.93,-0.05,0.04,-0.01,25.31
9224174,1674,1,196370,244438,0.63,-0.76,9.61,-0.02,-0.04,-0.00,25.31
9264194,1675,1,196526,243880,0.67,-0.72,9.98,-0.02,-0.02,-0.00,25.31
9304194,1667,1,196218,244375,0.25,-0.33,8.93,-0.07,-0.01,0.04,25.31
9344174,1807,1,196552,241039,0.48,-1.29,9.56,-0.04,0.04,-0.00,25.31
9384175,1659,1,194895,238952,0.81,-0.77,8.48,-0.06,-0.09,0.11,25.31
9424176,1678,1,194985,238224,0.47,-1.30,8.23,-0.05,0.02,-0.01,25.31
9464174,1726,1,195000,240722,0.21,-0.91,9.06,0.05,0.03,0.00,25.31
9504152,1975,1,196438,242616,0.59,-3.05,9.43,-0.00,0.07,-0.04,25.31
9544177,2034,1,196914,244600,0.27,-1.62,10.97,0.06,-0.02,-0.02,25.31
9584177,2039,1,197352,244943,-0.41,-1.70,9.34,-0.03,-0.01,0.03,25.31
9624198,2189,1,197027,244629,0.19,-1.20,10.22,0.03,-0.06,0.00,25.31
9664162,1948,1,196842,245604,0.19,-1.74,10.80,-0.01,-0.03,0.01,25.31
9704177,2015,1,197213,245543,-0.06,-1.67,9.91,-0.02,0.01,0.00,25.31
9744177,1936,1,197467,245996,-0.24,-1.61,11.39,0.00,0.04,0.01,25.31
9784168,2119,1,197217,244807,0.00,-0.08,10.02,-0.04,-0.03,0.00,25.31
9824177,1862,1,197073,245516,0.44,0.02,12.93,0.00,0.06,-0.00,25.31
9864152,1858,1,196874,245758,-0.27,-1.60,10.27,-0.03,-0.04,-0.00,25.31
9904215,1742,1,196856,245315,0.58,0.30,11.11,-0.02,-0.06,-0.01,25.31
9944176,1941,1,196648,245096,-0.08,-1.77,10.37,-0.03,-0.03,0.00,25.31
9984198,1830,1,196061,242350,0.86,-0.68,9.84,-0.08,-0.12,-0.02,25.31
10024210,1792,1,196424,244533,0.38,-1.30,10.48,-0.06,0.04,-0.01,25.31
10064177,1851,1,196128,241911,0.80,-0.80,7.78,-0.08,-0.13,-0.02,25.31
10104198,1917,1,196082,242212,0.96,-0.51,9.96,-0.07,0.05,-0.01,25.31
10144865,1797,1,195860,241889,0.92,-0.97,8.41,-0.03,-0.08,-0.01,25.29
10183199,1894,1,196264,243098,1.00,-0.33,10.23,-0.01,-0.02,-0.01,25.29
10223198,1824,1,196265,243673,0.49,-1.80,8.90,-0.05,-0.03,-0.00,25.29
10263198,1855,1,196381,242766,0.82,-0.52,9.09,-0.05,-0.07,-0.01,25.29
10303193,1648,1,196183,242786,0.66,-1.35,9.00,-0.03,-0.06,-0.00,25.29
10343193,1648,1,196311,242974,0.67,-1.21,9.37,-0.03,-0.02,0.07,25.29
10383176,1648,1,196406,243801,0.68,-0.76,9.97,-0.01,0.03,0.05,25.29
10423162,1851,1,196525,244301,0.64,-1.62,9.18,-0.03,0.01,0.02,25.29
10463162,1905,1,196752,245172,0.60,-1.08,9.65,-0.02,0.01,-0.00,25.29
10503176,1916,1,196987,245448,0.24,-1.27,10.64,-0.00,0.05,0.01,25.29
10543162,2032,1,196845,245559,0.50,-0.57,11.18,-0.02,-0.03,0.00,25.29
10583173,2090,1,196909,245409,-0.02,-1.29,11.36,-0.04,0.03,0.00,25.29
10623175,2144,1,196371,243771,0.91,-0.75,10.40,-0.09,-0.05,-0.01,25.29
10663194,2123,1,196852,245684,0.27,-1.63,10.36,-0.11,0.08,-0.00,25.29
10703177,2083,1,197316,245066,0.75,-0.15,9.81,-0.09,0.00,-0.02,25.29
10743176,1813,1,197339,245417,0.56,-0.58,10.15,-0.11,0.10,-0.09,25.29
10783177,1759,1,197230,243777,0.52,-0.40,9.42,-0.10,0.07,-0.09,25.29
10823198,1885,1,197244,244178,0.39,-0.79,10.27,-0.06,0.14,0.00,25.29
10863168,1775,1,196845,242925,0.69,-0.35,8.63,-0.10,-0.01,-0.00,25.29
10903198,2061,1,196957,243804,0.57,-0.78,10.27,-0.05,0.06,0.00,25.29
10943168,1901,1,196609,242569,1.09,-0.75,8.38,-0.09,-0.04,-0.00,25.29
10983198,1744,1,196454,242897,0.91,-0.82,9.35,-0.06,0.02,0.05,25.29
11023198,1748,1,196401,242558,0.88,-0.72,7.95,-0.06,-0.01,0.13,25.29
11063177,1777,1,196447,243176,0.80,-0.69,9.08,-0.04,0.06,0.13,25.29
11103162,1714,1,196958,244965,0.64,-0.97,9.94,-0.01,0.06,0.01,25.29
11143162,1784,1,197444,244611,0.02,-1.14,8.96,-0.05,0.04,0.00,25.29
11183850,1671,1,196837,243820,0.31,-1.25,10.44,-0.01,-0.02,0.01,25.41
11222175,1625,1,196167,241135,-0.08,-1.27,8.99,-0.03,-0.01,0.01,25.41
11262194,1650,1,195782,241609,0.70,-1.45,11.20,-0.04,-0.00,0.00,25.41
11302173,1652,1,196111,242507,0.15,-1.39,10.06,-0.05,-0.00,0.00,25.41
11342176,1652,1,196739,244218,0.12,-1.42,11.12,-0.02,0.02,0.01,25.41
11382162,1723,1,196971,243641,-0.03,-1.49,9.96,-0.03,0.01,0.01,25.41
11422175,1775,1,197230,245972,0.24,-1.61,11.20,-0.03,0.00,0.00,25.41
11462162,1858,1,197506,244544,0.07,-0.88,10.72,-0.03,-0.05,-0.01,25.41
11502197,1648,1,196884,245211,-0.27,-1.57,11.06,-0.02,-0.06,0.01,25.41
11542197,1721,1,197382,245204,-0.36,-1.40,11.42,-0.05,0.04,0.01,25.41
11582175,1655,1,196937,245135,0.59,-1.48,10.17,-0.05,-0.14,-0.00,25.41
11622197,1662,1,197502,245684,-0.13,-0.87,10.14,-0.11,0.06,-0.00,25.41
11662197,1662,1,197351,245957,0.39,-1.63,9.19,-0.05,-0.09,0.00,25.41
11702176,1818,1,197884,246024,-0.05,-1.91,11.71,-0.05,0.11,-0.01,25.41
11742197,1766,1,197296,244978,-0.21,-1.34,8.90,-0.02,-0.12,0.01,25.41
11782197,1685,1,197294,245255,0.80,-1.74,10.59,-0.05,-0.02,-0.01,25.41
11822197,1684,1,196928,243023,0.39,-0.19,8.78,-0.06,-0.10,-0.02,25.41
11862197,1887,1,196969,244318,-0.23,-1.59,9.62,-0.08,0.09,-0.00,25.41
11902197,1937,1,196758,241625,0.62,0.75,9.01,-0.04,-0.02,-0.13,25.41
11942174,1636,1,196113,242907,-0.08,-2.13,9.46,-0.03,-0.01,0.05,25.41
11982197,1667,1,196375,240947,0.92,-1.25,8.33,-0.04,-0.07,-0.01,25.41
12022205,1666,1,196219,243601,0.32,-2.47,10.63,-0.04,-0.01,0.14,25.41
12062176,1803,1,196810,241774,0.42,-0.16,8.46,-0.08,0.04,-0.06,25.41
12102174,1665,1,196111,242303,0.29,-1.51,9.82,-0.01,-0.03,0.02,25.41
12142176,1663,1,196584,242169,0.34,-1.49,8.77,-0.04,0.03,-0.01,25.41
12182175,1663,1,196538,242980,0.48,-1.41,10.17,0.01,-0.04,-0.01,25.41
12222864,1331,1,196832,242657,-0.01,-1.12,9.30,-0.05,0.04,-0.01,25.49
12261193,1337,1,196714,242940,0.02,-0.65,9.19,-0.01,0.00,-0.01,25.49
12301175,1350,1,197497,245215,0.02,-1.63,11.40,0.02,0.11,-0.01,25.49
12341162,1802,1,197403,245087,0.16,-0.98,9.24,-0.01,-0.06,-0.01,25.49
12381197,1779,1,197795,246276,0.26,-2.04,12.05,-0.03,0.04,-0.01,25.49
12421175,1808,1,197387,245362,-0.22,-0.82,8.73,-0.04,-0.12,-0.02,25.49
12461213,1739,1,197427,244766,-0.19,-1.38,11.99,-0.01,0.06,-0.01,25.49
12501197,1713,1,196658,244943,-0.31,-2.12,9.72,-0.05,-0.08,-0.01,25.49
12541213,1801,1,197222,245110,0.17,-1.48,10.82,-0.06,-0.03,-0.01,25.49
12581197,1665,1,196882,245331,-0.07,-2.02,9.64,-0.07,-0.04,-0.01,25.49
12621213,1739,1,197234,245425,0.12,-0.76,10.45,-0.06,-0.03,-0.02,25.49
12661199,1742,1,197311,245766,0.08,-1.08,10.64,-0.04,-0.01,-0.01,25.49
12701196,1667,1,197355,245440,0.27,-1.65,9.08,-0.09,-0.04,-0.02,25.49
12741193,1667,1,197408,244868,0.50,-0.18,9.33,-0.06,-0.03,-0.02,25.49
12781194,1675,1,197367,245651,0.07,-1.77,9.67,-0.02,0.04,-0.01,25.49
12821176,1762,1,197671,245703,0.36,-0.96,9.01,-0.03,-0.01,-0.02,25.49
12861198,1847,1,198030,246943,-0.35,-2.69,10.49,-0.01,0.08,-0.00,25.49
12901197,1893,1,198005,245861,0.28,0.34,6.32,-0.06,-0.05,-0.24,25.49
12941176,1831,1,198272,247302,-0.02,-2.47,11.20,0.01,0.07,0.00,25.49
12981162,1855,1,198340,247268,0.22,-1.21,8.16,-0.03,-0.05,0.03,25.49
13021176,1866,1,198784,248463,0.69,-1.86,11.22,0.04,0.01,0.02,25.49
13061151,1844,1,199024,248622,-0.16,-1.26,8.37,-0.04,0.01,-0.10,25.49
13101198,1814,1,199383,249095,0.36,-1.18,11.06,0.02,0.01,-0.16,25.49
13141168,2157,1,199618,249118,-0.18,-0.90,9.39,0.00,0.01,-0.20,25.49
13181176,2113,1,200382,250348,-0.35,-1.52,11.43,0.03,-0.03,-0.02,25.49
13221197,2138,1,199931,249020,-0.17,-1.12,9.88,-0.02,-0.08,0.04,25.49
13261886,1974,1,199119,249646,0.12,-1.37,10.93,-0.01,-0.13,0.04,25.49
13302177,2045,1,199065,248845,-0.04,-2.19,10.00,-0.05,-0.06,0.01,25.49
13342199,1742,1,198495,248512,-0.32,-1.62,10.08,-0.01,-0.10,-0.01,25.49
13382212,1753,1,198243,247495,0.03,-0.88,10.31,-0.04,-0.04,-0.02,25.49
13422198,1661,1,197692,247429,-0.18,-2.12,9.66,-0.02,-0.09,0.08,25.49
13460196,1683,1,198251,247874,0.13,-1.76,9.84,-0.05,-0.01,-0.02,25.49
13500197,1776,1,198597,248418,-0.28,-1.71,9.64,-0.01,-0.03,-0.01,25.49
13540213,1856,1,198550,247709,0.45,-1.22,9.42,-0.04,-0.06,-0.06,25.49
13580197,1783,1,198674,248121,-0.54,-1.59,9.39,-0.01,0.02,-0.01,25.49
13620197,1897,1,198376,247785,0.41,-1.22,9.41,0.00,-0.07,-0.02,25.49
13660175,1798,1,198917,248691,-0.06,-1.71,10.53,-0.01,0.12,-0.05,25.49
13700197,1811,1,198831,248124,0.39,-1.41,8.92,0.01,-0.10,-0.04,25.49
13740176,1782,1,198953,247863,0.49,-0.78,10.10,-0.00,0.04,-0.03,25.49
13780176,2119,1,198289,246488,0.42,-1.42,9.21,-0.00,-0.00,-0.02,25.49
13820197,2015,1,198308,246848,0.17,-1.55,9.19,-0.01,0.02,-0.03,25.49
13860175,2004,1,198725,247100,-0.15,-1.78,9.46,-0.00,0.06,-0.10,25.49
13900198,2047,1,198353,247198,0.67,-1.26,9.15,-0.01,-0.05,-0.03,25.49
13940197,1974,1,198906,247874,0.22,-0.40,10.40,-0.02,0.04,-0.04,25.49
13980175,1874,1,198407,248590,0.73,-0.95,9.53,0.03,-0.13,-0.03,25.49
14020175,1894,1,198969,249325,0.50,-1.26,9.73,-0.04,0.03,-0.04,25.49
14060175,1840,1,198608,248716,0.71,-0.74,10.03,-0.05,-0.06,-0.04,25.49
14100197,1984,1,198319,247486,0.36,-1.18,9.54,-0.07,-0.00,-0.03,25.49
14140197,1766,1,197539,246706,0.68,-0.99,10.11,-0.06,-0.06,-0.03,25.49
14180195,1726,1,197328,246212,0.49,-1.45,9.97,-0.08,0.01,0.02,25.49
14220162,1671,1,197333,246232,0.13,-0.27,10.06,-0.08,0.02,-0.03,25.49
14260173,1675,1,197403,246057,0.87,-1.54,10.75,-0.06,0.02,-0.02,25.49
14300896,1675,1,197269,245797,0.33,-1.23,10.11,-0.05,-0.03,-0.03,25.43
14341196,2099,1,197200,245450,0.56,-1.97,9.44,-0.06,-0.10,-0.02,25.43
14381196,2383,1,197344,246255,0.20,-1.85,9.20,-0.07,-0.00,-0.03,25.43
14421195,2305,1,197686,245437,0.24,-1.56,9.37,-0.11,0.04,-0.03,25.43
14461175,2323,1,196864,242214,0.36,-1.64,10.02,-0.05,-0.01,-0.03,25.43
14501209,2469,1,196002,241302,0.00,-1.25,10.16,-0.04,0.02,-0.02,25.43
14541175,2396,1,196045,241423,0.25,-1.81,10.04,-0.05,0.02,0.05,25.43
14581162,2327,1,196089,241086,0.06,-1.27,9.66,-0.07,0.04,0.02,25.43
14621161,2181,1,196021,240882,-0.04,-2.50,8.94,-0.07,0.01,0.07,25.43
14661174,2119,1,195992,240925,0.49,-0.77,10.20,-0.03,-0.02,0.02,25.43
14701176,2027,1,196477,244044,-0.26,-2.11,10.14,-0.04,0.06,-0.01,25.43
14741197,1751,1,197152,244788,0.37,-1.26,9.33,-0.07,0.01,-0.09,25.43
14781176,1707,1,197476,245918,-0.11,-1.96,11.00,-0.04,0.03,-0.04,25.43
14819193,1669,1,197386,245516,0.27,-1.25,9.52,-0.02,-0.04,-0.02,25.43
14859195,1674,1,197553,246472,-0.09,-1.59,11.20,-0.01,0.05,-0.01,25.43
14899192,1680,1,197732,246612,0.02,-1.74,9.96,0.00,-0.00,-0.02,25.43
14939173,1619,1,197927,245770,0.09,-1.09,10.34,-0.04,0.02,-0.02,25.43
14979173,1535,1,197885,246047,-0.14,-1.71,10.74,-0.05,0.08,-0.02,25.43
15019196,1328,1,198044,245839,0.19,-0.84,9.84,0.02,-0.08,-0.14,25.43
15059173,1994,1,198428,247570,-0.13,-1.25,11.15,-0.02,0.03,-0.08,25.43
15099196,1968,1,198884,247953,0.31,-1.14,10.49,-0.03,-0.03,-0.28,25.43
15139196,1990,1,197926,241697,-0.69,-0.66,7.56,-0.12,-0.02,-0.08,25.43
15179211,1680,1,195904,240901,0.10,-2.77,9.90,-0.09,-0.03,0.31,25.43
15219173,1680,1,196691,241170,0.65,-0.78,10.05,0.05,0.06,-0.02,25.43
15259162,1713,1,196449,243068,-0.20,-1.73,9.43,-0.02,-0.05,0.11,25.43
15299197,1845,1,197563,243049,0.10,-1.94,9.46,-0.14,0.08,-0.15,25.43
15339863,1697,1,196155,240608,0.69,-0.51,8.19,0.01,-0.31,-0.04,25.53
15380175,1675,1,195870,240908,0.46,-1.97,9.38,-0.04,0.01,0.21,25.53
15420162,1677,1,195826,241394,0.20,-0.37,8.86,-0.01,-0.05,0.09,25.53
15460175,1675,1,197524,245814,-0.09,-2.91,10.49,-0.04,0.19,-0.01,25.53
15500198,1804,1,197656,242486,0.11,-0.37,8.12,-0.08,-0.05,-0.12,25.53
15540198,1686,1,196808,245031,-0.06,-2.78,11.14,-0.00,0.07,0.14,25.53
15580177,1686,1,197677,245013,0.02,-0.56,8.99,-0.01,-0.03,-0.04,25.53
15620195,1757,1,197924,246783,0.58,-1.67,12.36,0.03,-0.02,-0.03,25.53
15660177,1699,1,198018,246015,-0.21,-2.10,8.28,-0.08,-0.04,-0.07,25.53
15700212,1794,1,197642,246569,0.49,-1.81,11.06,0.01,-0.10,-0.08,25.53
15740181,1739,1,197587,245298,-0.04,-1.23,9.45,-0.06,-0.06,-0.05,25.53
15780212,1723,1,196926,243220,0.00,-0.96,10.38,-0.07,0.00,-0.05,25.53
15820177,1678,1,196838,243246,0.06,-1.66,10.13,-0.08,0.04,-0.10,25.53
15860177,1713,1,196596,242947,0.23,-1.08,10.24,-0.06,-0.03,-0.09,25.53
15900198,1673,1,196534,242833,0.02,-1.57,9.44,-0.08,0.02,-0.05,25.53
15940188,1675,1,196638,243736,0.22,-0.73,10.73,-0.09,0.09,-0.05,25.53
15980176,1671,1,196966,243280,0.30,-1.34,9.39,-0.11,0.01,-0.05,25.53
16020176,1600,1,197134,243616,0.62,-0.94,10.90,-0.09,0.08,-0.07,25.53
16060175,1949,1,197568,242306,-0.32,-1.08,8.56,-0.12,0.02,-0.03,25.53
16100197,2151,1,197360,241688,0.88,-0.44,10.37,-0.08,0.09,0.01,25.53
16140162,1985,1,197293,241734,0.45,-0.80,9.06,-0.09,0.09,-0.03,25.53
16180174,1845,1,197214,244178,0.70,-1.01,9.67,-0.05,-0.00,-0.05,25.53
16218197,1807,1,197950,244998,-0.23,-1.87,9.86,-0.06,0.14,-0.08,25.53
16258197,1867,1,197465,244505,0.48,-1.82,9.52,-0.02,-0.05,-0.01,25.53
16298197,1687,1,197610,244084,0.29,-1.61,10.31,-0.02,0.00,0.00,25.53
16338162,1664,1,198017,244163,0.66,-2.11,10.06,-0.04,-0.03,0.08,25.53
16378863,1671,1,198039,243371,-0.10,-2.26,9.56,-0.02,0.03,-0.00,25.61
16419194,1742,1,197529,243597,-0.10,-1.29,10.48,0.02,-0.00,-0.01,25.61
16459198,1782,1,197688,244085,0.29,-1.31,10.35,-0.01,-0.05,-0.06,25.61
16499195,1739,1,197925,245306,-0.27,-1.39,10.28,-0.01,-0.04,-0.03,25.61
16539213,1676,1,198326,245313,0.26,-1.20,10.38,-0.01,-0.07,-0.06,25.61
16579196,1673,1,198412,246316,-0.21,-1.88,10.36,0.00,-0.03,-0.01,25.61
16619196,1671,1,198539,245942,0.45,-1.42,10.43,0.02,-0.08,-0.02,25.61
16659176,1672,1,198398,246374,-0.09,-2.12,10.53,0.03,-0.05,-0.01,25.61
16699198,1687,1,198302,246064,0.55,-1.37,10.38,0.02,-0.11,-0.02,25.61
16739175,1762,1,198352,246487,-0.32,-1.90,10.45,0.02,-0.02,-0.01,25.61
16779198,1755,1,197979,245565,0.38,-1.16,9.88,0.01,-0.12,-0.02,25.61
16819175,1844,1,198160,246278,-0.02,-2.15,10.16,-0.00,-0.04,-0.01,25.61
16859212,1751,1,198071,246583,0.48,-0.98,9.69,0.00,-0.11,-0.02,25.61
16899175,1765,1,198482,247109,0.02,-1.61,11.22,0.01,0.05,-0.02,25.61
16939162,1712,1,198171,246699,0.38,-0.57,9.76,0.01,-0.10,-0.03,25.61
16979175,1834,1,198362,246362,0.09,-2.02,10.68,0.00,0.02,-0.01,25.61
17019161,1665,1,197887,243941,0.57,-0.68,9.31,0.03,-0.12,-0.01,25.61
17059177,1669,1,197540,244114,0.77,-0.93,10.25,-0.02,-0.02,-0.02,25.61
17099196,1739,1,197695,244360,0.34,-0.72,8.77,-0.03,-0.04,-0.02,25.61
17139196,1997,1,197669,243592,0.64,-0.94,8.95,-0.04,-0.02,-0.02,25.61
17179198,1921,1,197288,243754,0.82,-0.40,8.38,-0.03,-0.07,-0.03,25.61
17219196,2032,1,197733,244003,0.74,-0.75,8.61,-0.05,-0.00,-0.02,25.61
17259199,1825,1,197434,243432,0.84,-0.73,8.48,-0.02,-0.02,-0.02,25.61
17299196,1936,1,197098,242223,0.69,-0.31,8.71,-0.00,-0.03,-0.02,25.61
17339199,1715,1,196854,242920,0.59,-2.83,9.39,-0.01,0.08,0.19,25.61
17379850,1933,1,196958,242009,0.94,-0.17,8.49,0.02,-0.04,-0.01,25.73
17418176,2013,1,196553,243678,0.64,-0.84,8.71,-0.01,0.01,0.10,25.73
17458162,2085,1,197751,244576,0.33,-1.20,9.28,-0.02,0.10,-0.01,25.73
17498177,2011,1,197169,243388,0.68,-0.24,8.52,-0.02,-0.06,-0.01,25.73
17538198,1851,1,197860,246156,0.43,-2.11,11.43,-0.03,0.22,0.02,25.73
17578183,1768,1,197976,245977,0.91,0.95,9.90,0.05,-0.07,-0.01,25.73
17618162,1661,1,198029,247210,0.83,-1.79,13.80,0.02,0.02,0.07,25.73
17658142,1664,1,197821,246765,0.33,-0.89,10.94,-0.05,-0.05,-0.00,25.73
17698197,1665,1,198093,247702,0.45,-1.19,13.71,0.00,-0.05,0.01,25.73
17738161,2523,1,197910,246914,0.37,-0.18,10.13,-0.12,-0.23,-0.00,25.73
17778201,2897,1,197926,247516,1.41,-0.81,14.01,-0.02,0.03,0.02,25.73
17818161,3149,1,198205,246302,-0.17,-0.47,8.35,-0.18,-0.13,-0.01,25.73
17858209,3257,1,198116,247446,2.21,-1.31,13.96,0.05,0.00,-0.06,25.73
17898162,3182,1,198432,245922,0.74,0.53,8.00,-0.12,-0.01,-0.01,25.73
17938174,3063,1,198553,249122,0.79,-1.60,10.19,0.04,-0.09,-0.09,25.73
17978176,1932,1,200438,250648,1.43,-0.23,10.21,-0.05,0.01,-0.59,25.73
18018176,2000,1,200888,250356,-0.37,-1.74,9.71,0.01,-0.05,-0.05,25.73
18058198,1936,1,198757,245864,1.49,0.14,9.40,-0.07,-0.17,-0.02,25.73
18098174,1645,1,197676,246783,0.73,-1.61,9.78,-0.08,0.07,0.18,25.73
18138162,1664,1,198090,246638,1.54,-1.16,8.13,-0.05,-0.01,-0.00,25.73
18178198,1860,1,198936,248503,0.75,-1.69,10.28,-0.11,0.24,0.00,25.73
18217168,1981,1,198549,244734,0.69,-0.51,8.14,-0.01,0.00,-0.23,25.73
18257177,2174,1,197409,243255,1.19,-0.37,11.22,-0.02,-0.01,0.00,25.73
18297177,2003,1,197102,242210,0.63,-1.16,8.06,-0.02,-0.04,0.01,25.73
18337176,2070,1,197396,243300,1.03,-0.81,10.57,-0.01,0.06,-0.00,25.73
18377176,2082,1,197372,243758,0.41,-0.99,9.30,-0.01,-0.05,0.01,25.73
18417865,2152,1,197563,244998,0.92,-0.54,9.48,0.01,-0.03,0.00,25.75
18458168,2087,1,198506,246106,0.35,-0.65,9.82,0.02,0.04,0.01,25.75
18498152,2141,1,198389,247563,0.89,-1.62,9.29,0.01,-0.04,0.03,25.75
18538168,2047,1,199611,246952,0.49,-0.94,9.43,-0.02,0.03,0.01,25.75
18578168,2319,1,199042,248257,0.16,-1.55,10.19,0.02,-0.03,0.01,25.75
18618168,2260,1,199122,246947,0.32,-0.91,10.47,-0.00,-0.03,0.00,25.75
18658177,2098,1,198476,247709,-0.22,-1.69,10.72,-0.01,-0.02,0.00,25.75
18698199,1952,1,198489,247180,0.59,-1.05,10.90,-0.03,-0.03,-0.01,25.75
18738198,1834,1,198353,247306,0.04,-1.47,10.68,-0.03,-0.01,-0.01,25.75
18778198,1696,1,198176,246991,0.82,-0.82,10.80,-0.02,-0.05,-0.01,25.75
18818195,1751,1,198144,245770,0.29,-1.11,10.60,-0.03,0.04,-0.01,25.75
18858177,1792,1,197861,245378,0.56,-1.06,9.67,-0.04,-0.04,-0.01,25.75
18898199,2223,1,198481,245467,-0.09,-0.96,9.38,-0.06,0.06,-0.01,25.75
18938199,2155,1,198023,245783,0.96,-1.09,9.35,-0.05,-0.07,-0.01,25.75
18978199,2154,1,198602,245437,0.70,-0.66,9.06,-0.09,0.01,-0.01,25.75
19018177,2116,1,197981,245717,1.04,-0.97,9.08,-0.07,-0.03,-0.01,25.75
19058198,2198,1,198277,245036,0.72,-1.02,9.65,-0.07,0.03,-0.01,25.75
19096176,2199,1,197559,244127,1.32,-1.30,9.38,-0.04,-0.07,-0.01,25.75
19136197,1991,1,197365,243567,0.96,-0.81,9.10,-0.07,-0.02,-0.01,25.75
19176197,1760,1,197516,244043,0.38,-0.99,9.49,-0.04,0.03,-0.00,25.75
19217176,1968,1,197595,242868,0.60,-1.11,8.66,-0.06,-0.01,-0.01,25.75
19257198,1799,1,197381,243965,0.43,-1.81,10.13,-0.03,0.04,-0.00,25.75
19297176,2036,1,197612,242914,0.88,-1.50,9.01,-0.03,-0.01,-0.01,25.75
19337198,1861,1,197544,243813,-0.01,-1.52,10.31,0.02,0.03,0.00,25.75
19377162,2026,1,197421,241719,0.78,-0.78,10.85,0.01,-0.05,-0.00,25.75
19417176,1820,1,197164,242879,-0.27,-1.84,11.47,-0.01,0.04,0.00,25.75
19457865,1782,1,197041,241789,0.41,-1.36,10.21,-0.01,-0.10,0.00,25.79
19496175,1659,1,197002,242704,0.13,-0.88,10.52,-0.04,-0.04,0.15,25.79
19536176,1713,1,197163,242626,0.29,-1.12,9.91,-0.07,0.02,0.00,25.79
19576162,1771,1,197523,245242,0.34,-1.30,11.03,-0.05,0.04,0.01,25.79
19616162,2112,1,197898,243498,0.59,-0.67,9.32,-0.05,0.01,-0.00,25.79
19656175,1827,1,197305,244371,0.46,-1.42,9.72,-0.06,-0.02,0.00,25.79
19696175,2110,1,197593,242891,-0.03,-0.85,9.80,-0.03,0.06,-0.00,25.79
19736197,1981,1,197156,243516,0.24,-0.78,10.15,-0.02,-0.03,0.00,25.79
19776176,2000,1,197605,243485,0.38,-1.63,9.07,-0.09,0.05,-0.01,25.79
19816176,1936,1,197735,244934,0.74,-1.35,10.08,-0.01,0.01,-0.00,25.79
19856177,2261,1,197886,243564,0.41,-1.06,8.52,-0.07,-0.01,0.01,25.79
19896176,1985,1,197877,244666,0.59,-1.06,10.13,-0.03,-0.03,-0.01,25.79
19936197,2007,1,197905,241717,0.26,-0.11,9.45,-0.03,0.02,-0.01,25.79
19976176,1809,1,196633,240737,0.72,-0.63,9.37,-0.03,-0.01,-0.01,25.79
20016198,2041,1,196693,240073,0.53,-1.35,8.86,-0.03,0.06,-0.01,25.79
20056176,1927,1,196272,240959,0.37,-1.49,8.68,-0.04,-0.02,0.18,25.79
20096177,2029,1,196926,241836,0.82,-1.29,9.33,-0.04,0.02,0.01,25.79
20136168,2085,1,197554,243269,0.02,-1.59,10.47,-0.02,0.06,0.06,25.79
20176168,2191,1,197384,242401,0.13,-1.67,10.15,-0.04,-0.00,0.00,25.79
20216176,2195,1,197309,243557,-0.16,-1.04,10.65,-0.00,0.01,0.00,25.79
20257177,2114,1,197622,244642,0.25,-1.50,10.65,-0.04,0.01,-0.00,25.79
20297177,1968,1,197849,245930,0.28,-1.77,10.37,-0.05,0.04,-0.01,25.79
20337177,2181,1,198249,245533,0.28,-1.23,10.62,-0.01,0.02,-0.01,25.79
20377178,2093,1,198106,246181,-0.04,-1.31,10.80,-0.01,0.03,-0.00,25.79
20415198,2312,1,198258,245593,0.19,-1.49,10.19,-0.02,-0.03,-0.01,25.79
20455198,2103,1,198109,246193,0.24,-0.66,10.03,-0.04,-0.01,-0.01,25.79
20495886,2244,1,197962,243612,-0.05,-1.16,9.68,-0.04,-0.00,-0.01,25.79
20536215,2218,1,197405,243233,0.40,-1.03,9.59,-0.03,-0.01,-0.01,25.79
20576198,2320,1,197321,242926,0.69,-0.73,8.94,-0.04,-0.03,-0.01,25.79
20616198,2114,1,197560,245598,0.94,-0.69,10.16,-0.02,-0.03,-0.01,25.79
20656198,2329,1,198345,244939,0.19,-0.98,9.30,-0.05,0.01,-0.01,25.79
20696177,2092,1,197950,245364,0.36,-1.13,9.38,-0.01,-0.04,-0.00,25.79
20736198,2206,1,197999,244189,0.30,-0.51,8.95,-0.02,-0.02,-0.00,25.79
20776197,1997,1,197417,245357,0.43,-1.79,9.25,-0.01,-0.04,0.01,25.79
20816176,2219,1,198260,246735,0.81,-1.25,9.54,-0.03,-0.02,-0.01,25.79
20856202,2207,1,199237,248849,-0.19,-1.87,9.16,-0.01,0.02,0.00,25.79
20896177,2230,1,199810,249763,0.75,-0.59,10.48,0.03,-0.03,-0.05,25.79
20936176,2251,1,200028,250545,-0.11,-1.49,11.31,0.01,-0.02,-0.02,25.79
20976198,2256,1,199541,249976,0.38,-1.10,11.28,0.00,-0.07,-0.01,25.79
21016176,2081,1,199237,249743,-0.34,-1.71,11.11,-0.02,-0.02,-0.01,25.79
21056236,1974,1,198841,248737,0.17,-1.32,10.48,-0.02,-0.04,-0.01,25.79
21096199,1870,1,198557,247020,-0.04,-0.74,10.87,-0.03,0.00,-0.01,25.79
21136198,2059,1,197901,247331,0.21,-1.29,10.24,-0.04,-0.01,-0.01,25.79
21176199,2064,1,198517,246879,-0.07,-0.63,9.95,-0.04,0.02,-0.02,25.79
21216198,2019,1,198324,248623,0.16,-1.01,9.68,-0.03,-0.01,-0.01,25.79
21256199,1981,1,198615,247303,0.26,-0.88,9.85,-0.04,-0.04,-0.09,25.79
21296198,2003,1,198369,248276,0.18,-1.12,9.68,-0.04,-0.01,-0.01,25.79
21336198,1887,1,198601,248449,0.78,0.33,10.06,-0.04,-0.01,-0.13,25.79
21376175,1711,1,198314,247892,0.42,-0.90,9.56,-0.07,-0.03,-0.02,25.79
21416196,1654,1,198011,248228,0.69,-1.19,9.64,-0.07,-0.04,-0.02,25.79
21456195,1926,1,198483,248616,0.51,-0.79,9.85,-0.02,-0.05,-0.01,25.79
21496886,2028,1,198767,248823,0.28,-0.24,9.15,-0.06,0.00,0.02,25.81
21535162,2106,1,198974,248204,0.21,-0.83,9.71,-0.07,0.04,-0.01,25.81
21575175,1967,1,198295,247540,0.95,-1.30,9.50,-0.02,-0.07,-0.01,25.81
21615198,2195,1,198777,248275,-0.46,-1.53,10.09,0.02,0.04,0.01,25.81
21655162,1904,1,197937,248142,1.52,-0.96,8.37,-0.03,-0.24,-0.01,25.81
21695198,1975,1,198782,249242,0.06,-2.07,11.37,-0.07,0.07,-0.01,25.81
21735176,1947,1,198441,248698,-0.75,-0.83,8.66,-0.03,-0.04,0.08,25.81
21775197,2000,1,198478,249036,0.30,-1.28,13.18,0.01,0.03,0.00,25.81
21815143,1653,1,197993,248270,-0.46,-0.62,9.98,-0.06,-0.06,0.03,25.81
21855193,1657,1,197870,248833,0.24,-0.29,11.82,-0.02,0.03,-0.02,25.81
21895174,1662,1,198140,248178,0.07,-0.01,11.60,-0.05,0.04,-0.01,25.81
21935173,1492,1,197973,249016,0.48,-2.45,10.62,-0.02,-0.09,-0.01,25.81
21975198,1582,1,198288,246779,0.02,1.14,10.22,-0.02,0.00,-0.08,25.81
22015162,1480,1,197560,247874,-0.13,-2.17,10.08,-0.01,-0.07,-0.00,25.81
22055214,1712,1,198293,247218,0.38,-0.18,9.19,-0.09,-0.02,-0.03,25.81
22095197,2144,1,198303,247915,-0.12,-1.70,9.37,-0.04,-0.05,-0.01,25.81
22135214,2033,1,198108,245143,0.81,-0.53,8.40,-0.04,-0.05,-0.02,25.81
22175195,1919,1,197231,244318,0.32,-0.75,7.39,-0.05,-0.03,0.09,25.81
22215177,1954,1,197475,246112,1.08,-0.51,8.22,-0.06,0.02,-0.00,25.81
22255177,2271,1,198666,247475,0.31,-0.58,8.10,-0.05,0.06,-0.01,25.81
22295177,2282,1,198910,248478,0.66,-1.36,8.99,-0.03,0.01,-0.01,25.81
22335177,2265,1,198532,245581,0.12,0.10,9.10,-0.00,0.01,0.00,25.81
22375152,1889,1,197133,244393,0.17,-1.60,9.59,-0.05,-0.02,0.44,25.81
22415176,2015,1,196910,244073,0.37,-0.31,9.20,-0.05,0.05,0.15,25.81
22455162,1731,1,196748,246424,-0.08,-1.86,10.28,-0.03,0.06,0.25,25.81
22495216,2130,1,198592,248420,-0.31,-1.29,10.90,-0.04,0.14,0.00,25.81
22535865,2019,1,198511,249416,0.01,-1.02,11.32,-0.02,-0.02,0.01,25.91
22574177,2119,1,198638,248016,-0.15,-1.21,12.19,-0.10,0.07,-0.01,25.91
22614197,1657,1,197708,246604,-0.36,-1.29,10.00,-0.04,-0.07,0.00,25.91
22654194,1649,1,198029,247674,-0.07,-1.06,12.03,-0.05,0.04,-0.01,25.91
22694198,1771,1,198000,245169,0.22,-0.36,10.35,-0.05,-0.06,-0.02,25.91
22734197,2037,1,197793,246245,-0.67,-1.85,10.35,-0.07,0.03,-0.01,25.91
22774197,2096,1,197949,245534,-0.08,-0.24,8.57,-0.06,-0.03,-0.24,25.91
22814214,2095,1,198212,246912,-0.45,-3.07,10.70,-0.02,0.06,-0.04,25.91
22854197,1965,1,197970,243763,-0.48,-0.83,7.96,-0.05,-0.08,-0.05,25.91
22894210,1845,1,197517,245467,0.25,-2.69,11.73,0.05,-0.01,0.05,25.91
22934162,1955,1,198185,247321,-0.87,-0.62,8.30,-0.02,-0.04,-0.01,25.91
22974214,2137,1,199186,248950,0.47,-3.18,13.43,0.09,0.03,-0.29,25.91
23014162,2000,1,198830,248637,-0.49,-2.17,10.15,0.03,-0.09,-0.01,25.91
23054197,1993,1,198098,246135,-0.37,-1.04,8.29,-0.02,-0.14,0.01,25.91
23094197,1663,1,198363,249612,-1.13,-2.41,10.05,0.03,0.05,0.02,25.91
23134162,1971,1,199444,248407,-0.23,0.27,7.97,0.03,-0.03,-0.20,25.91
23174176,2009,1,200227,252175,0.12,-2.47,14.16,0.05,0.04,0.05,25.91
23214152,2277,1,200722,250185,-0.40,-1.02,9.16,0.02,0.02,-0.15,25.91
23254176,2046,1,199844,250133,-0.82,-1.41,11.09,0.14,-0.13,0.12,25.91
23294176,2214,1,200439,251909,-1.37,-1.66,9.47,-0.03,0.13,0.05,25.91
23334176,1935,1,199735,252030,2.21,0.17,9.43,-0.04,-0.33,-0.08,25.91
23374177,2194,1,200669,251664,-1.09,-3.96,10.19,-0.03,0.08,-0.29,25.91
23414199,2116,1,198491,247927,2.07,1.61,8.18,0.08,-0.33,-0.09,25.91
23454162,2320,1,200342,251198,0.80,-2.81,14.63,0.02,0.40,-0.09,25.91
23494162,1989,1,198747,246477,0.04,2.97,4.61,0.13,-0.55,-0.08,25.91
23534168,2334,1,201810,252944,-0.44,-3.83,14.40,-0.10,0.57,0.03,25.91
23574864,2263,1,200410,249033,-0.60,-0.03,5.59,-0.05,-0.13,-0.08,25.85
23613215,2222,1,201769,253040,0.33,-1.10,12.62,0.10,-0.00,0.03,25.85
23653168,2141,1,201268,252912,0.08,-2.04,8.57,-0.08,0.04,-0.08,25.85
23693176,2131,1,200424,249958,0.74,-0.15,12.90,0.04,0.02,-0.36,25.85
23733162,1603,1,198917,250376,0.04,-1.54,10.52,0.03,-0.18,-0.01,25.85
23773173,1654,1,198395,248101,1.15,1.81,10.79,-0.07,0.02,-0.07,25.85
23813162,1664,1,198099,249805,-0.55,-3.82,11.08,0.03,-0.05,0.28,25.85
23853175,1671,1,198312,247829,1.06,0.52,9.12,-0.08,-0.10,-0.01,25.85
23893175,2304,1,198263,249546,0.27,-1.56,11.31,0.03,0.00,0.14,25.85
23933142,1535,1,198511,247572,1.01,-0.81,7.51,-0.10,-0.08,-0.01,25.85
23973199,1810,1,198728,250355,0.31,-1.20,9.80,-0.04,-0.01,0.06,25.85
24013178,2182,1,199430,249173,0.47,-0.74,7.64,-0.09,0.01,-0.01,25.85
24053178,2229,1,198587,249027,1.16,-0.67,10.19,-0.06,-0.06,-0.01,25.85
24093198,2064,1,198018,245436,0.36,-0.47,8.85,-0.10,0.02,-0.01,25.85
24133195,1634,1,196786,243551,0.45,0.28,9.46,-0.01,0.01,0.06,25.85
24173143,1647,1,196740,243234,0.60,-0.88,8.84,-0.06,0.04,0.12,25.85
24213162,1648,1,196716,243829,0.31,-0.55,9.25,-0.02,0.09,0.09,25.85
24253162,1649,1,197606,246374,0.06,-0.99,9.53,-0.04,0.13,0.00,25.85
24293168,2004,1,198405,247444,0.57,0.08,10.31,-0.01,0.02,0.00,25.85
24333162,2189,1,198059,245584,0.12,-1.07,10.08,-0.05,0.02,-0.00,25.85
24373175,1643,1,197909,245710,0.23,-1.53,9.78,-0.03,-0.05,0.02,25.85
24413175,1648,1,198344,246128,0.03,-0.94,10.86,-0.04,0.08,0.02,25.85
24453162,1645,1,197977,247348,0.29,-1.30,10.37,-0.04,-0.05,0.12,25.85
24493175,1557,1,198943,248500,-0.44,-1.42,10.66,-0.10,0.14,0.00,25.85
24533176,1719,1,198710,249333,0.07,-0.57,10.89,0.02,-0.09,0.01,25.85
24573162,1827,1,198762,248660,0.05,-0.59,10.56,-0.07,-0.00,-0.01,25.85
24613885,1691,1,198495,249359,0.11,-1.16,11.47,-0.05,-0.01,-0.00,25.85
24654196,1771,1,198650,248375,0.19,-0.51,10.86,-0.09,0.01,-0.01,25.85
24694174,1648,1,198497,248379,-0.13,-0.16,9.91,-0.03,-0.04,-0.00,25.85
24734210,1648,1,198722,248759,0.64,-1.36,10.29,-0.06,0.02,-0.01,25.85
24772176,1657,1,198844,248518,0.04,-0.54,9.97,-0.04,0.00,-0.01,25.85
24812176,2001,1,198580,246313,0.02,-1.51,10.26,-0.02,0.00,-0.09,25.85
24852175,1785,1,197792,246256,0.08,-0.78,9.89,-0.01,-0.05,-0.01,25.85
24892197,1794,1,198095,246390,0.34,-0.66,10.10,-0.01,-0.05,-0.01,25.85
24932197,1685,1,198011,246121,0.31,-0.63,9.25,-0.02,-0.07,-0.01,25.85
24972197,1933,1,198100,246622,0.22,-1.20,9.67,-0.03,-0.00,-0.01,25.85
25012197,1801,1,198039,246438,0.20,-0.51,9.30,-0.02,-0.01,-0.01,25.85
25052197,1763,1,197942,246178,0.01,-1.40,9.05,-0.03,-0.00,-0.01,25.85
25092197,1666,1,197854,246500,0.69,-0.39,9.67,-0.01,-0.03,-0.01,25.85
25132197,1744,1,198033,246751,0.30,-0.88,9.69,-0.02,-0.00,-0.00,25.85
25172197,1653,1,198154,247423,-0.20,-0.47,9.20,-0.01,0.02,-0.00,25.85
25212196,1699,1,198356,248461,0.94,-0.94,10.15,-0.02,-0.04,-0.01,25.85
25252197,1667,1,199029,249612,-0.31,-1.23,9.77,-0.02,0.03,-0.01,25.85
25292198,2000,1,198907,249351,0.87,0.05,9.85,-0.04,-0.02,-0.02,25.85
25332176,1959,1,199100,249997,0.36,-1.24,11.81,-0.00,0.03,-0.01,25.85
25372176,1996,1,199086,249666,0.19,-0.81,9.11,-0.06,-0.03,-0.01,25.85
25412198,1974,1,199343,249827,0.34,-1.05,11.70,-0.02,0.04,-0.01,25.85
25452177,2112,1,198741,247595,0.34,-0.44,9.16,-0.05,-0.05,-0.01,25.85
25492198,1999,1,198573,247227,0.26,-1.12,10.61,-0.05,-0.02,-0.01,25.85
25532198,2029,1,198107,246506,0.30,-0.62,9.21,-0.05,-0.04,-0.01,25.85
25572198,1968,1,198096,247143,0.07,-0.62,8.54,-0.10,0.01,-0.02,25.85
25612177,2128,1,198675,247182,0.07,-0.91,10.19,-0.04,0.07,-0.01,25.85
25652864,2007,1,198476,247630,0.28,-1.06,9.66,-0.03,-0.02,-0.01,25.87
25693198,2027,1,198878,247134,0.31,-1.13,10.25,-0.07,0.01,-0.02,25.87
25733177,1839,1,198329,246337,0.14,-2.01,8.03,-0.03,-0.06,-0.01,25.87
25773228,1968,1,198316,246738,0.54,-0.91,9.81,-0.07,0.04,-0.02,25.87
25813177,1905,1,198610,247323,0.52,-1.54,9.20,-0.05,0.01,-0.02,25.87
25853176,1963,1,198431,248256,1.00,-0.33,9.06,-0.05,-0.03,-0.03,25.87
25893199,1968,1,199470,249224,0.10,-2.08,9.67,-0.03,0.05,-0.12,25.87
25933177,2221,1,198624,248042,0.34,-0.63,8.54,-0.06,-0.04,-0.03,25.87
25973216,2259,1,199502,248737,-0.24,-1.83,10.40,-0.03,0.16,-0.00,25.87
26013199,2229,1,198142,246554,0.17,0.01,7.95,-0.02,-0.08,0.06,25.87
26053168,2256,1,198288,248352,0.53,-1.73,10.86,-0.06,0.03,0.01,25.87
26093168,2242,1,198870,247028,-0.52,-2.01,8.31,-0.09,0.05,-0.01,25.87
26133199,2192,1,198549,248051,0.34,-1.14,11.69,-0.01,0.03,-0.01,25.87
26173178,2201,1,198481,247261,0.39,-0.18,9.33,-0.02,-0.02,-0.02,25.87
26213199,2159,1,198660,249796,-0.34,-1.55,10.12,-0.07,0.05,0.00,25.87
26253178,2165,1,199347,249874,0.27,-0.40,10.61,-0.03,0.01,-0.08,25.87
26291177,2207,1,199041,250486,-0.05,-0.53,10.52,-0.03,-0.06,-0.02,25.87
26331215,2207,1,199240,249238,0.28,-0.94,11.53,-0.07,0.05,-0.10,25.87
26371177,1998,1,198362,246996,-0.12,-1.92,10.06,-0.02,-0.09,0.03,25.87
26411198,1941,1,198298,248212,-0.15,-0.57,10.40,-0.06,-0.02,-0.03,25.87
26451215,2099,1,198993,248936,0.19,1.18,10.77,-0.04,-0.01,-0.04,25.87
26491177,2224,1,198931,249218,0.12,-1.77,9.79,-0.11,-0.02,-0.05,25.87
26531199,2015,1,199011,248005,0.28,-1.01,10.78,-0.03,-0.01,-0.15,25.87
26571198,2121,1,198586,249187,-0.08,-0.79,10.59,0.01,-0.07,0.02,25.87
26611177,2163,1,199030,248998,-0.39,-1.00,9.29,-0.11,-0.03,-0.01,25.87
26651215,2150,1,198764,249719,0.41,-2.41,11.12,-0.07,-0.01,-0.03,25.87
26691888,2034,1,199215,248464,-0.56,-1.58,10.41,0.00,0.06,-0.14,25.85
26732177,1850,1,197961,246212,0.75,-1.53,9.73,0.00,-0.21,-0.01,25.85
26772177,1788,1,198117,247646,0.12,-1.95,10.58,-0.05,0.08,-0.03,25.85
26812177,1987,1,198143,245736,-0.75,-0.88,7.67,-0.06,-0.01,-0.01,25.85
26852215,1872,1,198275,247846,-0.56,-2.27,10.05,0.00,0.03,-0.01,25.85
26892177,2170,1,198446,248438,0.90,-0.31,10.18,-0.03,-0.09,-0.04,25.85
26932199,2258,1,199220,249829,-0.15,-1.70,9.36,-0.04,0.01,-0.07,25.85
26972199,2245,1,199378,249245,-0.58,-1.71,8.48,-0.05,0.05,-0.06,25.85
27012200,2166,1,199763,251192,0.04,-2.32,11.04,-0.00,0.03,-0.01,25.85
27052178,2292,1,199965,250160,-0.58,-0.39,8.88,-0.07,0.04,0.01,25.85
27092178,2083,1,199849,250809,-0.13,-2.21,11.07,0.03,0.09,0.02,25.85
27132168,1989,1,199581,249031,-0.21,-0.66,9.64,0.02,0.01,0.00,25.85
27172168,1943,1,199059,250574,-0.19,-1.67,9.43,-0.01,-0.03,0.03,25.85
27212199,2067,1,200620,252253,0.07,-0.83,9.61,0.00,-0.01,-0.12,25.85
27252178,2255,1,201393,253349,-0.39,-1.84,11.00,0.00,0.01,-0.12,25.85
27292178,2112,1,201330,252803,-0.50,-1.10,10.18,-0.00,-0.02,-0.07,25.85
27332216,2265,1,200833,252049,-0.42,-1.32,11.16,0.01,-0.06,0.01,25.85
27372177,2123,1,199726,250400,-0.34,-1.36,9.90,-0.06,-0.06,-0.02,25.85
27412227,2153,1,199474,250753,-0.14,-1.33,11.21,-0.02,-0.04,-0.02,25.85
27452215,2221,1,199318,250518,-0.18,-1.45,9.75,-0.04,-0.04,-0.02,25.85
27492216,2034,1,199639,249964,-0.72,-1.65,9.85,-0.06,0.01,-0.02,25.85
27532199,2192,1,198910,250597,0.11,-1.72,10.45,-0.03,-0.05,-0.02,25.85
27572200,2112,1,199651,250601,-0.05,-0.47,10.22,-0.02,-0.01,-0.02,25.85
27612244,2125,1,198975,250540,0.21,-1.09,9.39,-0.04,-0.08,-0.03,25.85
27652199,2039,1,199080,249637,-0.12,-1.73,9.39,-0.05,-0.02,-0.02,25.85
27692903,1857,1,198385,249518,0.13,-1.55,9.37,0.01,-0.07,-0.02,25.93
27731178,1812,1,199212,250404,-0.54,-1.97,10.29,0.03,0.02,-0.01,25.93
27771177,1854,1,198537,249046,0.20,-0.80,8.43,0.05,-0.22,-0.01,25.93
27811177,1579,1,198568,251480,-0.30,-1.49,10.32,0.00,-0.06,-0.00,25.93
27851199,2215,1,199219,249797,-0.15,0.38,9.45,-0.00,-0.05,-0.01,25.93
27891198,1535,1,198326,250321,-0.09,-0.93,8.95,0.04,-0.07,-0.00,25.93
27931198,1703,1,199435,251186,0.08,-1.46,11.37,0.00,0.17,-0.05,25.93
27971168,1631,1,199312,249769,0.71,-0.16,11.09,0.16,-0.17,-0.02,25.93
28011177,1618,1,198280,249179,0.84,1.08,9.50,0.04,-0.11,0.00,25.93
28051152,1616,1,199005,251267,1.42,-0.30,13.16,-0.01,-0.05,0.00,25.93
28091174,1621,1,198831,248364,0.62,2.20,5.98,0.04,-0.08,-0.33,25.93
28131162,1646,1,199069,251870,0.72,1.01,12.87,-0.04,0.04,-0.01,25.93
28171162,1763,1,200108,252151,1.32,2.88,11.58,0.04,0.08,-0.62,25.93
28211155,1925,1,199881,252477,1.25,0.96,13.11,0.16,-0.39,0.02,25.93
28250153,1940,1,199344,251077,0.19,0.80,9.56,-0.10,-0.01,0.01,25.93
28290162,1619,1,199240,251989,1.58,-0.90,11.18,0.01,-0.05,-0.01,25.93
28330176,1720,1,199333,250517,1.17,2.49,8.02,0.03,-0.17,0.00,25.93
28370156,1822,1,199964,251926,1.31,-0.99,13.62,-0.06,0.15,0.06,25.93
28410168,1814,1,199651,251490,0.64,-0.12,8.08,0.04,-0.21,-0.00,25.93
28450178,1946,1,200658,251516,0.14,0.51,12.63,0.06,-0.07,0.04,25.93
28490152,1682,1,199315,250925,-1.36,-1.76,4.67,-0.09,-0.19,0.13,25.93
28530198,1783,1,199771,250229,1.22,1.26,12.80,-0.10,0.26,0.01,25.93
28570152,1674,1,198290,245117,-0.94,-2.15,5.00,-0.05,-0.20,0.26,25.93
28610199,1903,1,197268,243861,2.37,3.11,10.98,-0.05,-0.05,0.06,25.93
28650168,1919,1,197344,244313,-0.07,-5.24,7.16,-0.11,0.19,0.19,25.93
28690176,1743,1,197492,244304,1.90,2.14,7.54,0.06,0.01,-0.01,25.93
28730840,1991,1,200456,249501,0.65,-2.95,15.44,0.02,0.08,-0.30,25.97
28771168,2161,1,198552,244386,0.87,2.15,3.45,-0.10,0.02,-0.11,25.97
28811168,2103,1,198920,247213,0.65,-1.45,15.40,-0.13,-0.02,0.03,25.97
28851175,1511,1,198471,244655,0.02,-0.24,6.33,-0.03,-0.09,-0.03,25.97
28891194,1616,1,199012,245631,0.98,0.45,11.56,0.01,-0.01,0.27,25.97
28931143,1621,1,199654,246478,-0.15,-2.77,8.32,-0.17,0.06,0.53,25.97
28971176,1623,1,198984,246834,0.90,1.41,11.29,-0.10,0.13,-0.04,25.97
29011162,2130,1,198893,248969,-0.01,-0.98,12.29,-0.10,0.04,0.01,25.97
29051194,2192,1,199190,248293,0.89,0.42,10.14,-0.23,-0.02,-0.02,25.97
29089174,2511,1,200252,249621,0.34,-2.24,13.18,-0.12,0.01,0.11,25.97
29129162,1904,1,200194,246839,0.24,1.13,8.04,-0.13,-0.03,0.02,25.97
29169162,961,1,199020,249139,2.60,0.45,15.20,-0.01,-0.03,0.13,25.97
29209168,895,1,199142,244716,-0.59,-1.90,7.66,-0.29,0.24,0.01,25.97
29249210,709,1,198275,244823,0.06,-2.43,10.37,-0.11,-0.02,-0.07,25.97
29289197,1328,1,198710,244166,0.43,0.25,8.77,-0.20,0.09,-0.02,25.97
29329162,2160,1,198966,244687,0.11,-1.51,10.05,-0.03,-0.05,0.16,25.97
29369176,1889,1,198864,243931,-0.20,-2.69,8.42,-0.16,0.21,-0.22,25.97
29409198,1627,1,198434,244136,-0.45,-0.19,8.09,-0.05,-0.19,0.03,25.97
29449196,1639,1,198710,244245,-0.32,-2.62,9.48,-0.15,0.22,0.00,25.97
29489175,1639,1,198611,243681,0.18,1.41,8.20,-0.03,-0.08,0.21,25.97
29529162,2000,1,198385,246162,0.23,-2.50,11.13,-0.11,0.18,0.03,25.97
29569168,1876,1,198723,245799,0.11,0.99,8.62,-0.04,0.00,-0.20,25.97
29609162,1781,1,198912,247292,-0.27,-1.79,11.69,-0.00,0.05,0.02,25.97
29649175,1635,1,199235,247363,-0.39,-1.28,8.96,-0.05,0.03,-0.03,25.97
29689193,1643,1,199624,249853,-0.88,-1.86,12.82,0.00,0.13,-0.00,25.97
29729175,1646,1,199782,250256,-0.41,-0.18,9.80,-0.04,-0.00,-0.11,25.97
29769902,1946,1,200276,251429,-0.36,-2.25,11.91,0.05,0.01,-0.22,25.91
29810177,1985,1,200249,250079,-0.22,-0.17,9.52,0.01,-0.07,-0.13,25.91
29850198,2007,1,200668,251665,0.42,-2.69,14.97,0.10,0.07,-0.13,25.91
29890168,1969,1,199390,247913,-0.91,-1.39,6.95,0.07,-0.30,0.12,25.91
29930176,2119,1,199985,250835,-0.31,-1.33,12.62,0.03,-0.04,0.00,25.91
29970176,1938,1,199131,247331,0.42,-0.89,8.42,-0.03,-0.24,-0.01,25.91
30010198,1683,1,198527,248848,-0.09,-1.12,10.49,0.03,-0.14,0.13,25.91
30050177,1718,1,198195,245263,0.54,-0.71,9.04,-0.04,-0.12,0.00,25.91
30090175,1626,1,197350,246086,0.43,0.07,8.94,0.04,-0.10,0.25,25.91
30130150,1900,1,198759,247647,0.41,-1.51,9.40,-0.04,0.04,-0.03,25.91
30170177,2000,1,198584,248068,0.49,0.23,7.85,0.06,-0.13,-0.01,25.91
30210168,1936,1,199971,250602,0.56,-0.98,11.46,0.03,0.06,-0.26,25.91
30250168,2034,1,199844,251000,0.11,-0.06,8.49,0.13,-0.13,-0.01,25.91
30290177,2064,1,200304,250636,0.44,-0.34,10.73,0.05,-0.03,-0.06,25.91
30330177,1797,1,199245,249893,0.41,0.32,7.04,0.11,-0.20,0.00,25.91
30370153,2036,1,200253,252277,0.77,-0.58,7.84,-0.03,0.11,0.00,25.91
30410168,2186,1,202895,256331,0.18,-1.30,9.43,-0.03,0.06,0.00,25.91
30450168,2253,1,203825,255791,0.57,0.29,7.81,0.02,0.03,-0.13,25.91
30490153,2094,1,203996,255420,0.20,0.89,11.39,0.01,0.01,-0.04,25.91
30528156,2307,1,202022,252965,0.32,-0.45,10.38,0.03,-0.09,0.01,25.91
30568168,2267,1,200951,253485,-0.20,-0.63,11.58,-0.00,0.02,0.27,25.91
30608177,2329,1,201539,253452,-0.24,-0.17,10.61,-0.01,0.00,0.02,25.91
30648176,2271,1,201496,253926,0.19,-0.21,11.55,-0.02,-0.01,0.04,25.91
30688191,2035,1,200874,251706,0.30,0.84,10.72,-0.02,-0.06,0.03,25.91
30728162,2150,1,200446,253489,-0.17,-0.01,10.27,-0.08,-0.02,0.26,25.91
30768199,2239,1,201215,251876,0.09,0.30,10.08,-0.09,0.02,0.01,25.91
30808840,2299,1,200838,252720,0.19,-0.34,10.54,-0.05,-0.11,0.01,26.03
30849177,2269,1,200517,249446,-0.43,-0.97,8.42,-0.16,0.02,0.00,26.03
30889214,2038,1,199106,248572,0.21,-0.31,10.17,-0.03,-0.03,0.01,26.03
30929177,1982,1,198889,247253,-0.21,-1.15,7.72,-0.11,-0.02,0.00,26.03
30969199,2047,1,198794,248318,-0.22,-0.53,8.22,-0.10,0.02,0.00,26.03
31009177,2065,1,200285,250583,-0.14,-0.96,10.24,-0.08,0.10,-0.00,26.03
31049199,2155,1,199613,248958,-0.23,-0.66,8.92,-0.07,-0.02,-0.05,26.03
31089237,2154,1,198477,245712,0.89,-0.86,10.51,-0.12,-0.02,-0.01,26.03
31129196,1614,1,197652,245805,-0.74,-2.01,9.64,-0.10,-0.04,0.55,26.03
31169196,1616,1,197957,245317,-0.10,0.27,8.77,-0.10,0.08,-0.00,26.03
31209173,1626,1,197826,247215,-1.34,-2.31,10.84,-0.05,0.09,0.14,26.03
31249175,1838,1,198632,247118,-0.85,-1.35,8.26,-0.08,0.10,-0.09,26.03
31289196,2353,1,199032,249913,-0.17,-0.30,13.96,-0.01,0.08,-0.01,26.03
31328194,2624,1,199754,250714,-0.40,-0.78,8.07,-0.10,0.05,-0.24,26.03
31368194,2559,1,200442,251822,0.15,-0.45,12.07,-0.05,0.04,-0.39,26.03
31408175,2657,1,200499,252309,-0.63,-2.62,10.71,-0.05,-0.03,-0.01,26.03
31448213,1498,1,199782,248500,-0.30,-0.83,7.83,-0.11,-0.06,-0.02,26.03
31488213,1731,1,199931,248975,-0.19,-1.04,11.71,-0.08,0.12,-0.01,26.03
31528197,1817,1,199218,248082,-0.58,-0.38,7.08,-0.07,0.00,-0.01,26.03
31568198,1875,1,201871,251514,0.14,-0.68,12.24,-0.01,0.14,-0.09,26.03
31608177,2000,1,202332,254550,-1.05,-2.41,8.21,-0.03,-0.06,0.00,26.03
31648199,1935,1,203080,252303,-0.39,0.41,9.80,-0.03,-0.05,-0.15,26.03
31688198,2166,1,201186,251627,0.07,-2.25,11.12,-0.04,-0.03,0.03,26.03
31728177,2129,1,201345,251111,-0.49,-1.19,8.51,-0.06,-0.04,-0.01,26.03
31768215,2187,1,200804,249308,0.21,-1.23,9.38,-0.04,-0.04,-0.01,26.03
31808886,1958,1,200231,250396,-0.67,-2.61,8.60,-0.03,-0.04,0.07,26.03
31849198,2187,1,200525,248762,0.18,-0.20,8.59,-0.03,-0.02,-0.01,26.03
31889198,2058,1,202564,254570,-1.07,-3.39,10.14,-0.00,0.13,0.01,26.03
31927176,2301,1,203726,253357,0.09,-0.07,9.28,0.07,-0.04,-0.18,26.03
31967177,2147,1,204448,258160,-0.75,-1.58,11.79,0.05,-0.04,0.01,26.03
32007177,2244,1,205257,258440,0.00,-0.10,8.48,-0.03,0.01,-0.12,26.03
32047177,2289,1,205399,258506,-0.46,0.53,11.04,0.08,-0.05,-0.04,26.03
32087176,2318,1,204408,257556,0.00,-1.43,10.30,-0.03,-0.06,-0.02,26.03
32127238,2254,1,203653,255635,-0.28,-0.18,11.53,0.05,-0.02,-0.02,26.03
32167198,2149,1,202086,252227,0.17,-1.05,10.65,0.03,-0.09,-0.01,26.03
32207176,1904,1,199784,249603,-0.19,-0.37,9.63,0.03,-0.12,-0.01,26.03
32247197,1786,1,199460,249581,0.01,-1.24,10.64,-0.01,-0.05,-0.01,26.03
32287197,1751,1,199104,250454,0.52,-1.06,9.44,0.01,-0.14,-0.02,26.03
32327179,2140,1,199453,248480,-0.24,-0.99,8.88,-0.07,-0.05,-0.02,26.03
32367210,1582,1,197496,245892,0.00,-0.66,8.27,0.00,-0.15,-0.01,26.03
32407172,1630,1,197059,246054,0.41,-1.20,9.79,-0.06,-0.05,0.11,26.03
32447175,1638,1,197220,246444,-0.34,-0.68,9.15,-0.03,-0.03,0.04,26.03
32487196,1642,1,197339,247789,0.54,-1.15,9.95,-0.02,-0.04,-0.01,26.03
32527231,1735,1,197973,248094,0.05,-0.30,9.79,-0.02,0.00,-0.05,26.03
32567173,1635,1,197547,247992,0.05,-1.40,9.21,-0.01,-0.04,-0.03,26.03
32607196,1648,1,197751,247958,0.29,-0.51,9.15,-0.06,-0.03,-0.03,26.03
32647196,1690,1,197703,248388,-0.01,-0.38,9.34,-0.03,0.04,0.07,26.03
32687175,1687,1,197983,248256,0.58,0.22,9.48,-0.04,0.01,-0.01,26.03
32727183,1648,1,198127,249306,0.61,-0.42,10.66,0.01,0.06,-0.01,26.03
32767162,1658,1,198487,249262,0.16,-0.83,9.67,-0.04,0.02,-0.01,26.03
32807173,1651,1,198450,249658,0.15,-0.23,9.70,-0.02,0.00,0.04,26.03
32847850,2249,1,198574,250014,0.17,-0.56,9.80,-0.05,0.02,-0.01,26.03
32888174,2151,1,198391,249471,0.31,-0.18,9.84,-0.07,-0.00,-0.01,26.03
32928198,1963,1,198438,249285,0.14,0.03,9.97,-0.05,0.03,-0.01,26.03
32968162,1766,1,198560,249872,-0.37,-0.17,10.07,-0.04,0.05,0.00,26.03
33008177,1737,1,198768,250274,-0.17,-1.02,10.54,-0.03,0.05,0.00,26.03
33048175,1743,1,198757,251152,-0.20,-0.17,9.77,-0.06,-0.02,0.07,26.03
33088198,2046,1,199791,252058,-0.57,-0.91,9.98,-0.07,0.07,0.03,26.03
33128177,2182,1,199583,252048,-0.23,0.25,9.55,-0.05,-0.04,0.05,26.03
33168177,2160,1,200189,252654,-0.28,-0.68,10.82,-0.07,0.08,0.03,26.03
33208177,2224,1,200208,252404,-0.40,-0.54,10.54,-0.04,-0.02,0.07,26.03
33246198,2165,1,200221,252219,-0.78,-0.97,10.00,-0.07,0.00,0.07,26.03
33286177,2242,1,199680,251832,-0.45,-0.34,10.02,-0.05,-0.03,0.01,26.03
33326198,2325,1,199790,251880,-0.70,-0.90,10.06,-0.08,0.02,0.03,26.03
33366177,2295,1,199529,251200,-0.34,0.13,9.61,-0.05,-0.00,-0.00,26.03
33406198,2166,1,200104,251986,-0.67,-0.73,10.51,-0.06,0.05,0.02,26.03
33446177,2199,1,200148,251599,-0.65,-0.03,10.17,-0.03,-0.05,0.06,26.03
33486198,2131,1,199977,251679,-0.76,-1.21,10.28,-0.05,-0.04,0.06,26.03
33526201,2199,1,199721,251634,-0.71,-0.56,9.24,-0.06,-0.02,0.03,26.03
33566198,2069,1,199888,250937,-0.57,-0.66,10.49,-0.05,0.01,-0.01,26.03
33606198,2131,1,198951,250222,-0.82,-0.51,9.52,-0.02,-0.08,-0.00,26.03
33646214,2206,1,199572,250730,-0.75,-0.80,10.59,-0.05,0.04,-0.00,26.03
33686198,2186,1,199224,250315,-0.93,-1.09,8.89,-0.01,-0.10,-0.00,26.03
33726215,2149,1,199019,248852,-0.16,-0.44,9.73,-0.04,-0.03,-0.01,26.03
33766215,2113,1,198553,249531,-0.81,-0.83,9.09,-0.02,-0.01,-0.01,26.03
33806215,2160,1,198806,247826,-0.14,-0.06,9.46,-0.01,0.01,-0.01,26.03
33846197,1911,1,198179,248264,-0.59,-1.03,9.62,0.01,-0.05,-0.01,26.03
33886886,1967,1,198557,248039,-0.27,-0.61,9.35,-0.04,0.07,-0.01,25.97
33927198,2197,1,198598,248956,-0.71,-1.12,10.16,0.03,-0.03,-0.00,25.97
33967198,2015,1,198457,247968,-0.10,0.08,10.17,0.03,-0.07,-0.01,25.97
34007173,1621,1,198289,249580,-0.60,-0.83,11.43,-0.00,-0.02,-0.01,25.97
34047211,1632,1,198967,250409,0.10,-0.57,10.55,-0.02,-0.06,-0.02,25.97
34087193,1639,1,199546,251078,-0.43,-0.90,11.02,-0.01,-0.01,-0.01,25.97
34127211,2485,1,199600,251224,-0.61,-0.53,10.19,-0.06,0.02,-0.02,25.97
34167193,2465,1,199699,251287,-0.68,-0.36,12.17,0.02,0.01,-0.01,25.97
34207174,2626,1,199422,250706,-0.35,-0.33,10.50,-0.01,-0.07,-0.01,25.97
34247209,2446,1,199211,250577,-0.64,-1.03,9.92,-0.04,-0.05,-0.08,25.97
34287211,2546,1,199131,250029,-0.22,-0.69,8.83,-0.05,-0.06,-0.08,25.97
34327211,2361,1,199069,249453,-0.40,0.08,9.51,-0.05,0.03,-0.03,25.97
34367175,2311,1,199257,250561,-0.09,-0.52,9.91,-0.04,-0.01,-0.03,25.97
34407212,1872,1,199581,250892,-0.22,-0.79,10.21,-0.04,-0.05,-0.03,25.97
34447214,1591,1,199106,250249,-0.02,-0.57,9.63,-0.03,-0.10,-0.01,25.97
34487210,1625,1,198871,249889,-0.09,-0.30,10.17,-0.03,-0.08,-0.01,25.97
34527210,1632,1,199025,250624,0.19,-1.09,10.19,-0.03,-0.01,-0.02,25.97
34567196,1639,1,199281,250500,0.49,-0.64,9.44,-0.02,-0.07,-0.14,25.97
34607198,1488,1,199876,251791,0.54,-2.02,10.67,-0.07,0.02,-0.08,25.97
34645175,1808,1,200291,250813,0.61,-0.17,9.05,-0.03,-0.04,-0.16,25.97
34685197,1789,1,200698,251397,0.04,-0.38,9.66,-0.01,0.04,-0.04,25.97
34725176,1984,1,200764,252275,0.43,-1.40,8.99,-0.02,-0.04,-0.07,25.97
34765198,2017,1,201792,252704,0.44,-0.47,9.71,-0.01,0.01,-0.03,25.97
34805176,2112,1,200948,249944,0.41,-0.72,8.81,-0.02,-0.03,-0.02,25.97
34845194,1639,1,198819,248761,0.40,-0.07,9.37,0.01,-0.02,0.09,25.97
34885196,1648,1,198848,248959,0.66,-1.87,9.57,-0.03,0.03,0.06,25.97
34925849,1649,1,199180,249940,0.43,-0.86,8.52,-0.03,-0.00,-0.01,26.09
34966194,1644,1,200560,252113,0.45,-0.56,10.23,-0.01,0.04,-0.00,26.09
35006176,1849,1,201263,253977,0.10,-1.18,10.11,-0.02,0.03,-0.00,26.09
35046174,1709,1,201531,254491,0.23,-0.24,10.47,-0.01,0.00,-0.01,26.09
35086176,1712,1,201425,254909,0.29,-1.25,11.02,-0.02,0.01,-0.01,26.09
35126174,1813,1,201430,254227,0.31,-0.33,10.05,-0.06,-0.03,-0.01,26.09
35166197,1766,1,201452,253969,-0.06,-0.57,11.58,-0.01,0.02,-0.00,26.09
35206197,2054,1,200653,252883,0.52,-0.57,10.20,-0.08,-0.05,-0.01,26.09
35246198,1915,1,200500,252279,0.01,-1.07,11.16,-0.07,0.00,-0.01,26.09
35286174,1776,1,199921,251451,0.40,-0.23,10.12,-0.07,-0.05,-0.01,26.09
35326198,1693,1,199910,251664,0.10,-1.17,10.61,-0.07,-0.01,0.00,26.09
35366174,1665,1,199749,250850,0.31,-0.75,9.77,-0.07,-0.05,-0.00,26.09
35406198,1701,1,199730,250673,0.27,-1.24,9.99,-0.07,-0.03,0.00,26.09
35446177,1701,1,199856,251158,0.40,-0.71,9.77,-0.06,-0.03,0.00,26.09
35486177,1744,1,200519,252144,0.02,-0.91,10.20,-0.04,0.00,0.01,26.09
35526168,2240,1,200946,253200,0.31,-1.28,9.80,-0.04,-0.04,0.00,26.09
35566177,2118,1,201396,253353,0.42,-1.10,10.09,-0.05,-0.02,0.03,26.09
35606177,2118,1,201567,254337,0.31,-1.02,10.07,-0.02,-0.01,0.01,26.09
35646177,1995,1,201753,254347,0.46,-1.15,9.65,-0.01,-0.07,-0.02,26.09
35686198,2091,1,201648,254668,0.10,-1.50,9.31,-0.03,-0.01,-0.01,26.09
35726198,2017,1,201772,253734,0.58,-0.51,9.92,-0.02,-0.02,-0.08,26.09
35766196,2026,1,201189,253234,0.60,-0.51,9.84,-0.01,-0.07,-0.00,26.09
35806198,1984,1,201102,251944,0.39,-0.74,9.37,-0.03,-0.01,-0.06,26.09
35846198,2100,1,199985,251956,0.53,-1.34,9.22,0.01,-0.07,-0.05,26.09
35886177,2019,1,200421,251693,0.61,-0.76,9.50,0.01,-0.03,0.00,26.09
35926850,1849,1,199684,251707,0.62,-0.53,9.11,0.06,-0.07,-0.02,26.03
35965176,1920,1,200157,251435,0.37,-0.91,10.14,0.00,0.00,0.01,26.03
36005158,1678,1,198938,250056,0.53,-0.74,7.59,0.03,-0.18,0.03,26.03
36045162,1872,1,199017,248661,1.06,-0.21,9.10,-0.06,-0.03,0.01,26.03
36085173,1616,1,198593,250018,0.69,-0.40,9.69,0.04,-0.06,0.02,26.03
36125162,1826,1,200036,250190,0.65,0.45,10.06,0.00,0.05,-0.22,26.03
36165152,2257,1,199651,251351,0.85,-0.90,11.18,0.03,-0.10,0.03,26.03
36205162,2177,1,200085,250552,0.88,-0.28,9.79,-0.02,-0.02,-0.24,26.03
36245197,1907,1,199433,250471,0.89,0.42,10.43,0.05,-0.09,0.02,26.03
36285145,1803,1,199693,250792,1.56,0.19,11.29,-0.02,-0.01,0.00,26.03
36325162,1712,1,199370,250608,1.46,0.73,8.51,0.03,-0.18,0.00,26.03
36365149,1825,1,199753,250824,0.82,0.02,9.26,-0.08,0.03,-0.02,26.03
36405162,1987,1,200023,251702,0.96,0.67,9.34,0.01,0.01,-0.12,26.03
36445155,1963,1,200513,252558,1.68,0.79,10.66,-0.02,-0.01,-0.07,26.03
36485176,2288,1,200722,251472,0.26,0.11,9.72,-0.03,-0.02,-0.04,26.03
36525195,2010,1,199274,248444,1.64,2.26,8.68,-0.05,-0.21,0.02,26.03
36565162,1627,1,199020,251551,1.42,-2.23,10.82,-0.04,-0.01,0.05,26.03
36605176,1663,1,199130,248481,1.42,0.43,8.09,-0.11,-0.08,0.01,26.03
36645162,1647,1,198800,250793,0.55,-1.24,11.77,-0.02,0.06,0.01,26.03
36685162,1714,1,199629,249717,1.26,-1.32,9.84,-0.04,0.05,0.03,26.03
36725162,1651,1,199494,251263,-0.25,-1.95,10.11,0.02,-0.02,0.03,26.03
36765176,1673,1,199821,250588,1.39,-1.05,10.73,-0.12,0.06,0.01,26.03
36805162,1837,1,200322,252643,-0.97,-0.55,9.90,-0.02,0.15,0.02,26.03
36845177,1978,1,201034,253214,1.24,-0.83,11.06,0.00,0.08,-0.20,26.03
36885162,1965,1,201136,253920,0.29,-0.97,11.71,0.00,-0.10,-0.00,26.03
36925177,1663,1,201012,254181,-0.03,-1.68,6.48,-0.19,-0.01,0.09,26.03
36965886,2128,1,202150,254513,1.09,-0.37,12.46,-0.05,0.15,-0.28,26.03
37004177,2133,1,201222,252737,1.27,-0.31,8.27,-0.08,-0.19,-0.01,26.03
37044198,2263,1,202336,254488,0.58,-0.17,12.00,-0.11,0.24,-0.03,26.03
37084175,1936,1,200981,250945,1.04,-0.34,8.36,-0.08,-0.20,-0.02,26.03
37124197,1888,1,199881,249249,0.62,-1.23,9.12,-0.07,-0.02,0.22,26.03
37164175,1626,1,198365,245169,-0.18,-0.90,6.99,-0.08,-0.01,0.38,26.03
37204197,1639,1,197427,244383,1.05,-0.92,9.40,-0.04,0.10,0.33,26.03
37244162,1677,1,199230,249647,0.68,0.03,11.60,-0.03,0.22,0.02,26.03
37284152,2154,1,200631,252201,0.78,-0.25,8.10,-0.12,-0.03,-0.08,26.03
37324198,2187,1,202196,255070,1.56,-2.55,11.91,-0.08,0.10,-0.22,26.03
37364177,2017,1,201727,253408,1.22,0.58,10.11,0.06,0.00,-0.27,26.03
37404156,1703,1,200353,251609,0.52,-1.62,9.18,0.14,-0.51,-0.05,26.03
37444176,1787,1,200159,252758,0.73,-1.48,12.27,-0.22,0.29,0.06,26.03
37484168,1909,1,199803,248381,0.21,0.04,6.83,-0.03,-0.15,-0.00,26.03
37524189,1728,1,199101,251187,1.73,-0.77,13.72,0.00,0.06,-0.03,26.03
37564162,1919,1,200143,250315,0.14,-0.88,9.45,-0.16,0.12,0.13,26.03
37604162,1855,1,199649,252219,0.44,0.11,12.35,0.10,-0.10,0.04,26.03
37644154,1879,1,199988,250140,-0.34,-1.52,10.41,-0.16,0.06,0.08,26.03
37684175,1638,1,198598,251643,-0.03,-2.71,9.78,-0.05,-0.13,0.01,26.03
37724197,1645,1,200034,251150,0.65,-1.84,12.96,-0.03,0.12,-0.33,26.03
37764173,1642,1,199214,249534,0.39,-0.68,8.03,0.11,-0.45,-0.01,26.03
37804176,1648,1,199398,250843,0.64,-1.74,12.73,-0.07,0.11,-0.01,26.03
37844176,1647,1,199198,246934,-0.64,-0.89,6.31,-0.02,-0.26,-0.01,26.03
37884214,1296,1,198635,246078,1.03,-1.74,10.10,0.04,-0.01,-0.00,26.03
37924176,1712,1,198275,246268,0.99,0.55,8.06,0.02,-0.11,-0.03,26.03
37964168,1839,1,199749,249382,-0.20,-0.72,9.37,0.00,0.08,-0.01,26.03
38004865,1994,1,199984,250754,1.58,0.11,8.46,-0.01,-0.14,-0.04,26.11
38043178,2083,1,201407,253559,0.61,-0.26,9.05,0.00,-0.01,-0.17,26.11
38083178,1984,1,201230,252759,1.38,-1.78,8.45,-0.05,-0.08,-0.05,26.11
38123200,2175,1,201583,254282,-0.17,-1.02,10.84,-0.02,0.12,-0.01,26.11
38163199,2007,1,201552,253092,1.22,-0.38,11.03,0.07,-0.03,-0.03,26.11
38203178,1983,1,200766,254003,1.69,0.42,10.14,0.07,-0.29,-0.06,26.11
38243168,2098,1,202701,255876,0.34,-1.81,11.33,-0.10,0.15,-0.09,26.11
38283178,2178,1,202393,256057,0.69,1.40,6.89,0.00,-0.26,-0.18,26.11
38323169,2160,1,203344,254573,1.33,-0.57,12.45,-0.08,0.17,-0.22,26.11
38363178,1747,1,200267,251505,0.63,1.42,6.92,-0.08,-0.36,-0.02,26.11
38403177,1745,1,200024,252159,1.12,-0.13,11.91,-0.10,0.16,-0.00,26.11
38443178,1856,1,199775,252404,0.76,0.95,8.28,-0.06,-0.11,0.05,26.11
38483169,2088,1,200985,252449,-0.05,0.18,10.81,-0.08,0.16,0.01,26.11
38523169,1857,1,199336,250986,1.05,0.32,9.60,-0.10,-0.13,-0.00,26.11
38563178,1999,1,199224,249036,-0.03,-0.09,9.21,-0.13,0.04,0.07,26.11
38603176,1581,1,198099,250363,1.19,-0.63,9.61,-0.02,-0.16,0.13,26.11
38643177,1791,1,199705,250494,-0.13,-1.86,12.15,-0.16,0.19,0.02,26.11
38683177,1588,1,198573,251244,0.67,-2.11,9.14,0.07,-0.36,0.06,26.11
38723168,1824,1,199240,249823,0.89,-0.06,11.00,-0.09,0.15,0.09,26.11
38763162,1599,1,198116,249395,-1.12,-2.45,7.20,0.02,-0.30,0.38,26.11
38803173,1601,1,198565,249570,0.87,0.32,13.64,-0.10,0.25,-0.00,26.11
38843162,1604,1,198391,246812,-1.22,-0.59,4.45,0.03,-0.51,0.24,26.11
38883175,2055,1,198032,247463,2.83,0.74,12.10,0.04,0.10,-0.02,26.11
38923143,2800,1,198502,246704,-0.20,-1.87,7.25,-0.09,-0.05,0.17,26.11
38963196,2704,1,198176,246567,0.37,0.28,7.53,-0.01,0.01,-0.08,26.11
39003162,3293,1,198733,249212,1.03,0.14,13.11,-0.01,0.29,-0.01,26.11
39043850,2803,1,198601,247450,0.89,0.03,5.95,-0.01,-0.18,-0.02,26.21
39084229,2751,1,198825,249594,1.05,-0.71,13.95,0.06,0.15,0.02,26.21
39122141,2902,1,198825,248270,0.22,-0.13,6.63,-0.05,-0.24,0.00,26.21
39162175,3044,1,199174,250299,1.47,-0.37,15.36,0.18,0.20,0.00,26.21
39202141,3323,1,198035,247318,0.99,-0.85,8.38,-0.11,-0.28,0.20,26.21
39242174,3250,1,198282,249422,0.77,0.11,13.24,0.07,0.09,0.02,26.21
39282122,3341,1,198222,248085,0.71,0.47,9.75,-0.01,-0.08,0.08,26.21
39322161,3207,1,198505,248547,-0.29,-0.44,10.75,-0.01,0.06,0.01,26.21
39362175,3216,1,198620,248363,0.64,0.05,9.99,-0.00,0.03,-0.19,26.21
39402161,2885,1,199296,249713,1.01,-1.46,11.51,0.03,0.03,-0.19,26.21
39442162,2755,1,198929,248372,0.84,0.33,9.08,-0.02,-0.14,-0.01,26.21
39482175,2434,1,199550,250826,-0.04,-1.19,9.88,-0.04,0.10,-0.02,26.21
39522198,1474,1,199478,247734,0.85,2.83,7.80,-0.11,-0.06,-0.11,26.21
39562175,1570,1,198684,249401,-0.31,-1.97,11.37,-0.11,-0.10,0.15,26.21
39602194,1595,1,199323,248027,0.49,-0.80,8.72,-0.03,0.16,0.01,26.21
39642162,1613,1,198472,249855,-0.01,-1.71,11.02,0.06,-0.29,0.43,26.21
39682173,1735,1,199483,250295,0.74,-0.16,9.60,-0.06,0.19,-0.05,26.21
39722173,1632,1,198900,249601,-0.12,-1.61,9.13,-0.06,-0.09,0.13,26.21
39762196,1637,1,198944,249501,0.96,-1.41,10.08,-0.04,-0.04,0.00,26.21
39802174,1643,1,199784,247821,1.10,1.09,9.05,0.06,-0.10,0.03,26.21
39842141,1689,1,199089,248313,1.41,-2.31,10.76,-0.08,0.08,-0.02,26.21
39882175,1776,1,199273,245661,1.23,0.83,7.83,-0.01,0.05,-0.41,26.21
39922162,1740,1,199215,251584,-0.56,-1.55,11.35,0.05,0.03,0.01,26.21
39962162,1680,1,200520,248368,1.28,1.52,9.30,-0.06,0.11,-0.28,26.21
40002162,1650,1,199242,251202,-1.72,-3.42,9.49,0.08,-0.12,0.23,26.21
40042177,2089,1,200468,250295,1.76,-0.10,10.77,-0.03,0.06,-0.17,26.21
40082863,1972,1,200461,250277,-0.77,-1.97,8.73,-0.02,0.06,0.08,26.11
40123176,1699,1,199275,248525,1.34,0.44,8.57,-0.05,-0.12,-0.02,26.11
40163174,1808,1,199483,250129,1.13,1.41,11.41,-0.02,0.10,-0.00,26.11
40203162,1857,1,199227,248508,-0.22,-0.88,6.90,-0.08,0.03,0.01,26.11
40243175,1904,1,200370,251219,0.98,-0.62,15.07,0.08,0.15,0.02,26.11
40283144,1728,1,199334,248928,-0.65,-1.14,8.12,-0.03,-0.19,0.17,26.11
40323198,1766,1,199064,251701,1.73,-0.60,12.18,0.04,-0.02,-0.01,26.11
40363177,1766,1,199557,251530,0.83,1.10,9.12,-0.10,-0.01,-0.04,26.11
40403175,1759,1,200470,253752,0.37,0.40,12.10,0.00,0.14,-0.19,26.11
40443144,1779,1,200883,253532,1.99,0.01,15.39,0.07,0.03,-0.37,26.11
40483143,1657,1,200655,253328,-0.94,-1.40,8.77,-0.07,-0.14,0.10,26.11
40523197,1761,1,200338,251864,1.96,0.28,13.90,-0.01,-0.01,-0.03,26.11
40563175,1659,1,198881,246352,0.32,-0.26,6.99,-0.09,-0.17,-0.02,26.11
40603196,1664,1,198612,248800,2.56,0.44,11.74,0.06,-0.03,-0.16,26.11
40641162,2137,1,199841,249355,1.81,-0.79,7.75,-0.08,-0.05,-0.11,26.11
40681197,2017,1,199738,249213,0.93,0.52,7.16,0.02,-0.15,-0.06,26.11
40721162,2225,1,200451,249151,0.58,-2.20,8.60,0.01,0.11,0.02,26.11
40761154,1730,1,199050,248211,1.31,2.62,9.19,0.09,-0.28,0.04,26.11
40801151,1795,1,199889,251378,0.27,-1.33,9.49,0.02,-0.00,0.04,26.11
40841162,2037,1,199477,250116,2.11,-0.30,7.00,-0.07,-0.19,-0.03,26.11
40881198,2141,1,200111,251314,0.59,-0.62,9.36,-0.02,0.04,-0.01,26.11
40921186,1692,1,200390,253622,1.27,-0.15,10.08,0.05,0.05,-0.05,26.11
40961168,2174,1,201146,252634,1.68,0.73,14.13,0.03,0.07,0.06,26.11
41001122,1600,1,199924,252353,0.42,-1.69,11.09,0.03,-0.08,0.14,26.11
41041162,1648,1,199178,249979,1.20,1.88,10.47,0.01,-0.10,-0.01,26.11
41081162,1645,1,198694,251446,1.27,-2.62,13.10,0.07,0.05,0.02,26.11
41121839,1709,1,199706,250240,0.44,-0.08,8.18,-0.20,0.00,-0.03,26.17
41162176,1653,1,199622,252579,2.07,0.25,14.64,0.21,-0.11,-0.13,26.17
41202162,1665,1,199051,247568,1.15,-0.22,7.18,-0.21,-0.05,0.06,26.17
41242174,1658,1,197079,244619,0.57,-1.58,10.76,0.04,-0.11,0.31,26.17
41282161,1650,1,197321,243669,0.89,-0.83,8.74,-0.08,0.02,0.45,26.17
41322161,1653,1,197691,243278,-0.06,-2.22,8.41,-0.10,-0.01,0.39,26.17
41361196,2237,1,198281,243923,1.77,-0.63,11.51,-0.05,0.04,0.12,26.17
41401162,2310,1,200019,244745,0.13,-0.33,6.54,-0.31,-0.16,0.42,26.17
41441175,1522,1,200159,245280,1.41,-0.75,9.01,-0.10,0.05,-0.01,26.17
41481173,430,1,201181,246014,0.27,-1.92,9.41,-0.22,0.04,0.26,26.17
41521162,0,1,200663,246060,1.55,0.44,9.34,-0.12,0.06,-0.06,26.17
41561162,64,1,202160,247313,-0.25,0.00,7.83,-0.29,0.01,0.33,26.17
41601162,0,1,202718,247243,1.99,-0.51,9.06,-0.09,0.19,-0.09,26.17
41641176,48,1,202683,246751,2.15,1.18,8.47,-0.17,-0.08,0.05,26.17
41681162,0,1,201109,248007,1.84,-1.10,12.05,0.12,0.14,-0.38,26.17
41721162,2047,1,200371,247981,0.68,-0.06,7.22,-0.20,-0.01,0.15,26.17
41761173,2958,1,200761,250343,1.01,-0.92,13.98,0.20,0.00,-0.12,26.17
41801162,2837,1,199717,245146,0.97,0.61,5.78,-0.15,-0.15,0.28,26.17
41841162,2022,1,199147,248577,1.11,-0.13,15.17,0.22,0.06,-0.01,26.17
41881168,272,1,199256,243559,1.05,2.09,5.18,-0.20,0.14,-0.08,26.17
41921162,256,1,198390,244597,1.08,-3.39,14.21,0.50,-0.11,-0.07,26.17
41961175,0,1,198224,242832,2.08,2.81,8.32,-0.14,0.00,-0.02,26.17
42001162,1710,1,198651,248772,-0.15,-2.69,12.54,0.17,0.01,0.02,26.17
42041162,2815,1,199437,248481,2.56,1.71,9.64,-0.14,0.03,-0.23,26.17
42081162,3493,1,198474,248178,0.17,-0.62,10.28,0.03,-0.15,0.14,26.17
42121849,3633,1,198161,246606,1.66,-0.75,10.83,-0.15,-0.03,0.04,26.15
42162174,3609,1,198172,247322,1.04,0.16,11.86,0.03,0.01,0.06,26.15
42200122,3437,1,198654,245959,1.20,1.02,10.39,0.01,-0.04,-0.00,26.15
42240162,3430,1,198435,248082,0.48,-1.16,12.01,-0.01,0.02,-0.00,26.15
42280174,3437,1,199106,248666,1.21,-2.14,9.67,-0.07,-0.07,-0.09,26.15
42320196,3452,1,199174,248130,1.20,-0.25,10.95,0.12,-0.16,-0.03,26.15
42361215,3583,1,199485,248497,-0.81,-2.22,10.42,-0.07,0.11,0.02,26.15
42401174,3601,1,199002,245546,0.94,-1.84,8.14,0.04,-0.19,-0.08,26.15
42441174,3522,1,198596,246202,1.58,-1.27,10.01,0.07,0.02,-0.20,26.15
42481162,1996,1,198892,245589,1.18,1.11,5.39,-0.18,0.01,-0.03,26.15
42521168,1701,1,202868,253579,1.96,-1.27,14.13,0.35,0.02,-0.20,26.15
42561177,2240,1,202678,251107,0.58,0.68,6.56,-0.20,-0.01,0.09,26.15
42601162,2037,1,202045,251531,-0.18,-0.97,13.90,0.26,-0.08,0.05,26.15
42641174,1589,1,198659,247138,1.05,-1.26,7.48,-0.10,-0.17,0.34,26.15
42681174,1606,1,198020,249664,1.98,0.81,13.21,0.08,-0.05,0.15,26.15
42721140,1619,1,198719,247194,1.31,0.87,7.88,-0.16,-0.08,-0.03,26.15
42761174,1568,1,198440,250197,1.65,-1.16,13.01,0.04,0.03,-0.24,26.15
42801162,1645,1,199877,248018,0.89,-0.20,8.88,-0.26,0.22,0.09,26.15
42841161,1634,1,198212,247824,-0.09,-0.56,8.36,0.37,-0.51,-0.06,26.15
42881197,1674,1,199204,246463,2.15,1.19,10.97,-0.25,0.27,-0.01,26.15
42921161,1635,1,198171,245630,-0.51,-2.40,6.41,-0.15,-0.11,0.36,26.15
42961194,1663,1,199224,246059,1.99,1.84,11.92,-0.08,0.03,-0.13,26.15
43001161,1634,1,198594,244479,-1.64,-0.70,3.52,-0.44,0.03,0.27,26.15
43041177,1840,1,199183,247455,2.68,1.05,13.68,-0.10,0.23,-0.51,26.15
43081162,1617,1,198956,245396,0.86,-0.64,6.58,-0.27,-0.10,0.31,26.15
43121862,1634,1,199130,246734,1.01,1.07,10.83,0.18,-0.05,-0.26,26.15
43160162,1666,1,199429,247965,0.99,-0.98,11.53,-0.06,0.12,-0.01,26.15
43200175,1776,1,199343,248188,1.19,-0.46,9.87,-0.04,-0.08,-0.04,26.15
43240196,1728,1,199913,249635,1.08,0.33,12.36,0.07,-0.02,-0.11,26.15
43280162,1728,1,200226,251767,1.37,-1.59,11.53,0.01,-0.03,-0.02,26.15
43320176,1744,1,200993,251566,1.42,-0.38,9.42,-0.03,-0.06,-0.16,26.15
43360197,1872,1,200659,250482,0.36,0.16,8.50,0.01,-0.05,-0.01,26.15
43400162,1817,1,201500,253060,1.00,-1.08,12.42,0.02,0.17,-0.05,26.15
43440162,1869,1,201796,251730,0.41,-0.14,9.31,0.02,-0.08,-0.08,26.15
43480176,1741,1,200103,250859,1.88,-1.00,10.49,0.03,-0.26,-0.04,26.15
43520174,1762,1,200087,249835,0.99,-0.41,9.17,-0.03,0.02,-0.01,26.15
43560176,1651,1,199279,248403,-0.12,-1.90,7.14,-0.07,-0.10,-0.02,26.15
43600213,1754,1,199430,249018,1.49,-0.13,11.65,-0.01,0.08,-0.01,26.15
43640176,1680,1,199119,249466,0.40,-0.32,8.27,-0.02,-0.11,0.12,26.15
43680176,1827,1,199893,250546,1.34,-0.23,11.10,-0.03,-0.03,-0.13,26.15
43720197,1808,1,199431,250472,1.01,-0.35,11.22,-0.07,-0.15,-0.02,26.15
43760194,1653,1,199139,248957,1.26,0.20,9.50,-0.10,-0.10,-0.04,26.15
43800174,1663,1,198415,247161,0.89,-0.00,9.40,0.02,-0.10,-0.11,26.15
43840172,1662,1,197677,244198,1.59,-0.80,9.26,-0.10,-0.02,0.22,26.15
43880174,2174,1,197452,242285,2.04,-0.37,8.67,-0.16,-0.12,0.16,26.15
43920175,2433,1,197466,242019,1.25,-0.10,8.59,-0.13,0.12,0.02,26.15
43960161,2769,1,198055,242542,1.94,-0.35,10.81,0.12,-0.01,-0.01,26.15
44000187,2769,1,198266,242901,0.42,-0.29,10.75,-0.00,0.07,0.14,26.15
44040162,2761,1,198892,242889,2.00,0.07,5.94,-0.17,-0.15,-0.08,26.15
44080174,2559,1,199279,243454,2.53,-0.87,11.33,0.25,-0.01,-0.19,26.15
44120174,2096,1,199090,242230,0.73,-0.99,5.99,-0.24,0.04,-0.01,26.15
44160862,1392,1,198573,241812,1.20,0.23,11.91,0.26,-0.15,-0.02,26.21
44199200,1320,1,198278,241771,0.56,-1.25,7.52,-0.16,0.01,0.09,26.21
44239162,688,1,198180,241816,1.51,0.28,9.31,0.05,0.03,0.01,26.21
44279123,592,1,198125,242108,0.45,-1.96,9.94,-0.03,0.02,0.22,26.21
44319162,804,1,198283,242150,-0.01,0.34,8.04,-0.10,-0.04,0.26,26.21
44359173,899,1,198417,242744,1.23,0.31,13.75,0.09,0.13,0.02,26.21
44399122,1556,1,199014,242743,1.07,-0.00,7.39,-0.20,-0.06,0.10,26.21
44439173,1568,1,198660,245776,0.19,-0.64,13.33,0.03,0.18,-0.04,26.21
44479162,1699,1,198733,243720,0.74,-0.34,8.57,-0.24,0.01,0.11,26.21
44519162,2063,1,198038,243110,0.49,-0.91,12.45,0.00,0.05,-0.03,26.21
44559162,1777,1,198763,243552,0.21,0.17,11.19,-0.05,0.00,0.06,26.21
44599143,1677,1,199062,243673,1.11,-0.82,12.33,-0.02,0.02,-0.08,26.21
44639175,1139,1,199834,243486,0.15,-0.54,9.05,-0.29,0.10,0.23,26.21
44679162,910,1,200574,243570,1.06,-0.92,10.57,-0.01,-0.00,0.16,26.21
44719175,871,1,200721,244118,1.44,0.42,8.67,-0.04,-0.04,-0.02,26.21
44759175,1091,1,201775,244775,-0.53,-0.71,9.26,-0.49,0.44,0.15,26.21
44799175,823,1,202466,245504,1.14,-0.97,10.15,0.24,-0.12,-0.03,26.21
44839174,931,1,202748,245157,-1.28,-0.26,4.89,-0.78,0.53,0.51,26.21
44879173,1428,1,203175,246300,2.43,-0.10,10.44,0.73,-0.57,-0.05,26.21
44919173,3434,1,204509,245941,-0.30,-0.43,6.22,-0.61,0.26,0.53,26.21
44959174,3583,1,205414,243046,1.60,-2.25,8.15,0.41,-0.36,0.06,26.21
44999162,3635,1,199680,238126,1.55,1.07,8.05,-0.04,-0.05,-0.01,26.21
45039172,3631,1,207439,246168,0.81,-2.83,10.78,0.08,-0.12,-0.14,26.21
45079173,3639,1,209065,246854,1.26,-0.23,6.65,-0.21,0.13,-0.22,26.21
45119173,3631,1,208998,247993,-1.16,-2.32,10.39,-0.06,0.14,0.05,26.21
45159174,3635,1,208051,247073,0.78,0.00,7.48,0.20,-0.11,-0.09,26.21
45199849,3706,1,208273,249150,0.25,-1.23,12.24,0.06,-0.01,-0.04,26.27
45238174,3479,1,208554,250576,1.31,-1.81,9.02,0.00,0.00,-0.15,26.27
45278162,3221,1,209452,255266,0.83,-0.94,12.12,0.09,-0.07,-0.37,26.27
45318174,2943,1,209850,256183,0.53,-1.03,9.56,-0.10,0.07,-0.25,26.27
45358174,2978,1,208346,253866,0.99,0.31,7.92,-0.14,-0.09,-0.14,26.27
45398174,2867,1,207919,255673,0.48,-1.40,10.33,-0.06,0.04,-0.01,26.27
45438174,2559,1,207472,251271,1.38,2.40,9.57,0.02,-0.01,-0.04,26.27
45478162,2379,1,206585,255163,-0.05,-1.91,15.19,0.01,-0.01,0.27,26.27
45518173,2288,1,207324,252048,1.13,-0.51,8.49,-0.13,-0.00,0.03,26.27
45558171,2195,1,206446,250720,-0.18,0.91,9.61,0.10,-0.23,0.11,26.27
45598162,2174,1,206882,250768,1.79,-0.45,10.75,-0.03,0.01,0.06,26.27
45638170,2128,1,207403,250023,0.97,-0.52,7.53,-0.11,-0.13,0.08,26.27
45678171,2031,1,208106,250496,1.57,-1.12,10.88,0.07,0.02,-0.01,26.27
45718162,1907,1,208328,250190,1.79,0.12,8.44,-0.03,-0.04,-0.01,26.27
45758173,1243,1,208787,250919,0.41,-2.42,9.89,-0.06,-0.02,-0.02,26.27
45798195,1040,1,208744,249747,1.27,0.90,8.92,-0.02,-0.05,-0.23,26.27
45838174,900,1,208362,248837,0.28,0.75,8.56,-0.09,0.04,-0.12,26.27
45878161,1034,1,209006,250104,0.30,-2.96,12.06,0.04,0.08,-0.16,26.27
45918162,1058,1,208994,249684,1.82,1.70,10.52,-0.07,0.03,-0.03,26.27
45958162,917,1,208074,249552,0.91,-0.22,7.58,-0.02,-0.19,0.06,26.27
45998170,950,1,208262,250089,2.55,0.77,11.28,-0.13,0.19,-0.06,26.27
46038162,701,1,208135,249158,0.38,-1.30,9.52,-0.04,0.02,0.09,26.27
46078158,647,1,207611,247512,2.20,0.42,8.88,0.09,-0.11,-0.09,26.27
46118161,731,1,207473,247351,1.10,-1.36,10.91,0.04,-0.03,0.03,26.27
46158161,785,1,207320,248449,1.12,-0.38,7.57,-0.03,0.06,-0.10,26.27
46198171,749,1,208254,252016,1.38,0.05,11.25,-0.02,0.06,-0.14,26.27
46238849,782,1,208755,254648,1.01,-1.36,9.91,-0.02,-0.04,-0.09,26.27
46279196,656,1,208637,255047,1.19,1.67,7.34,-0.06,-0.03,-0.08,26.27
46319172,645,1,209142,256625,1.21,-0.28,11.48,0.03,-0.02,-0.06,26.27
46359171,855,1,207892,253674,2.22,0.23,8.66,-0.02,-0.10,0.01,26.27
46399160,825,1,208294,256808,0.67,-0.33,12.74,0.04,-0.00,-0.00,26.27
46437170,912,1,207602,253184,1.94,0.19,8.93,-0.11,-0.07,-0.02,26.27
46477170,913,1,207396,254401,0.52,0.39,14.66,0.02,0.11,-0.02,26.27
46517138,1065,1,206241,249277,1.87,-0.89,8.50,-0.13,-0.15,-0.03,26.27
46557190,1168,1,205970,252100,1.15,-0.01,11.70,0.00,0.07,-0.14,26.27
46597161,1225,1,206501,249299,1.84,1.06,8.50,-0.19,0.01,-0.15,26.27
46637161,1331,1,206182,250730,1.04,0.17,11.60,0.02,0.04,-0.12,26.27
46677143,778,1,206581,250169,1.98,-0.09,10.64,-0.01,-0.02,-0.04,26.27
46717192,202,1,205828,249646,0.37,-0.47,8.27,-0.09,-0.07,0.15,26.27
46757174,0,1,206763,251407,0.36,-1.12,10.72,-0.06,0.17,0.00,26.27
46797161,0,1,205970,249364,1.20,0.15,9.92,-0.04,-0.09,0.19,26.27
46837161,166,1,206471,252942,0.55,-0.04,12.51,0.02,0.07,-0.01,26.27
46877161,426,1,206520,249535,1.64,1.16,7.10,-0.19,-0.05,0.02,26.27
46917162,822,1,206632,252483,0.71,-2.56,13.81,0.16,0.05,-0.05,26.27
46957161,1169,1,207028,249585,1.40,0.22,7.32,-0.13,-0.10,0.08,26.27
46997162,1415,1,206372,249741,1.14,-1.45,10.85,0.09,-0.17,0.05,26.27
47037162,1657,1,206244,248463,1.74,-0.40,7.66,-0.07,0.13,-0.02,26.27
47077173,1641,1,205494,247907,0.65,0.73,7.75,-0.18,0.14,0.05,26.27
47117140,1710,1,205996,247699,1.30,-0.28,12.75,0.35,-0.09,-0.02,26.27
47157173,1899,1,205645,246414,0.59,-1.29,9.11,-0.10,-0.05,0.31,26.27
47197171,2285,1,206046,247415,0.34,-2.28,11.97,0.12,-0.09,0.00,26.27
47237162,2519,1,206281,247726,0.60,-0.82,9.45,-0.01,-0.04,0.07,26.27
47277872,2507,1,206504,251453,0.07,-2.64,10.94,-0.05,0.04,-0.03,26.31
47318172,2607,1,206762,250990,1.49,0.84,10.97,-0.08,-0.05,-0.06,26.31
47358171,2505,1,206746,253662,0.40,-2.43,13.93,0.14,-0.03,0.00,26.31
47398161,2559,1,206693,251108,2.19,0.68,8.94,-0.06,-0.15,-0.02,26.31
47438172,2368,1,206586,253474,0.66,-0.34,12.39,-0.01,0.06,-0.05,26.31
47478219,2449,1,206373,252623,1.50,-1.02,8.41,-0.22,-0.12,-0.06,26.31
47518192,2355,1,207030,253933,0.84,1.41,11.77,0.08,0.03,-0.05,26.31
47558140,2559,1,206339,253297,0.75,-1.38,9.10,-0.08,-0.28,-0.03,26.31
47598192,2406,1,206728,252945,2.25,1.94,9.56,0.03,-0.05,-0.02,26.31
47638161,2469,1,206269,250143,1.00,-0.56,5.64,-0.30,-0.01,0.00,26.31
47678201,2432,1,205523,251167,0.85,0.15,6.57,-0.08,-0.08,-0.16,26.31
47718175,1793,1,209163,255531,2.21,-0.86,10.16,0.18,-0.00,-0.26,26.31
47758174,2352,1,207784,256004,0.99,0.32,6.74,-0.24,-0.07,0.06,26.31
47796162,2265,1,211488,255272,2.47,-2.35,14.54,0.21,-0.09,-0.15,26.31
47836175,1526,1,206104,248460,1.08,0.66,4.81,-0.24,-0.19,0.53,26.31
47876161,1643,1,207066,249459,1.06,-3.10,13.64,0.27,-0.03,0.23,26.31
47916162,1657,1,207310,248503,-0.28,-1.45,6.41,-0.13,0.08,0.54,26.31
47956173,1667,1,207730,248731,1.56,-2.54,12.84,0.24,-0.13,-0.04,26.31
47996173,2559,1,208014,248766,1.94,1.99,7.73,-0.17,0.22,-0.20,26.31
48036162,2943,1,208345,253403,0.81,-0.92,11.27,-0.02,0.15,-0.35,26.31
48076172,3100,1,208717,255450,1.28,0.15,5.55,-0.05,0.15,-0.55,26.31
48116162,2786,1,209364,256347,0.61,1.71,11.50,0.22,-0.19,-0.02,26.31
48156162,2545,1,210408,259151,0.83,-2.64,12.83,0.04,0.10,-0.09,26.31
48196162,2078,1,208465,254563,1.05,1.71,7.51,-0.15,0.01,0.08,26.31
48236142,2333,1,207806,257208,0.24,-2.68,14.50,-0.04,0.04,0.08,26.31
48276161,2559,1,206360,255733,1.36,0.91,9.33,-0.06,-0.08,0.00,26.31
48316849,2585,1,206012,254862,1.10,-0.48,12.17,-0.05,-0.09,0.02,26.29
48357171,2693,1,205969,253840,1.55,2.12,7.35,-0.16,-0.05,0.18,26.29
48397162,2768,1,205876,250664,1.07,-1.47,11.43,-0.11,0.04,0.03,26.29
48437162,2551,1,205684,252231,0.01,-1.57,9.89,-0.12,0.11,-0.06,26.29
48477175,2205,1,205978,251326,1.26,-0.47,6.83,-0.02,-0.17,-0.16,26.29
48517196,2213,1,207486,255738,0.28,-2.42,14.40,-0.12,0.10,-0.11,26.29
48557175,2116,1,206152,249024,0.62,1.63,4.05,-0.27,0.09,0.15,26.29
48597141,2016,1,205581,252560,2.52,-4.22,15.41,0.52,-0.51,0.01,26.29
48637162,1244,1,206254,249592,3.39,3.87,4.29,-0.10,0.10,-0.44,26.29
48677162,1306,1,205599,253063,1.40,-2.32,12.04,0.22,-0.23,0.16,26.29
48717161,766,1,206281,251400,2.66,0.90,7.60,-0.14,0.03,-0.25,26.29
48757162,1037,1,205629,254244,0.28,-0.59,12.10,0.09,0.04,0.13,26.29
48797141,1075,1,205963,252195,1.13,-2.50,8.22,-0.04,0.04,0.03,26.29
48837161,1522,1,204760,248222,-0.76,0.84,7.33,-0.13,-0.02,0.36,26.29
48877172,1728,1,204306,248265,1.10,-1.19,8.57,0.23,-0.03,0.01,26.29
48917162,1471,1,204709,247179,2.32,2.32,5.64,-0.21,0.14,-0.03,26.29
48957161,1285,1,205158,250777,1.27,-4.02,11.13,0.41,-0.16,0.24,26.29
48997162,1079,1,207154,255065,3.46,1.90,9.87,0.07,0.13,-1.02,26.29
49037142,964,1,207929,256212,1.12,-1.73,11.60,-0.16,0.21,0.02,26.29
49077161,694,1,207524,255493,0.09,0.14,14.40,0.31,-0.29,-0.25,26.29
49117162,853,1,206480,255225,0.52,-0.79,11.67,0.09,-0.15,0.09,26.29
49157162,1087,1,206288,254859,1.48,-0.60,11.36,-0.02,-0.05,-0.01,26.29
49197196,1382,1,206608,255046,0.38,0.50,11.54,-0.01,-0.01,-0.01,26.29
49235174,1662,1,205687,254211,2.22,0.72,9.36,-0.10,-0.04,-0.03,26.29
49275175,1731,1,206063,254027,0.74,1.06,9.54,-0.14,0.06,-0.02,26.29
49315162,1906,1,205650,255611,1.83,-0.66,11.25,0.03,-0.08,-0.01,26.29
49355862,1871,1,206085,253327,1.55,0.38,10.31,-0.11,-0.04,-0.02,26.31
49396174,2102,1,204814,251927,-0.01,-2.44,10.04,-0.07,-0.07,0.23,26.31
49436192,2084,1,204835,251024,1.31,-0.59,8.72,0.00,-0.11,0.02,26.31
49476162,2087,1,204800,249912,0.45,-0.84,10.14,0.10,0.02,0.04,26.31
49516140,2075,1,204584,248112,0.74,-0.23,6.77,-0.15,-0.08,0.06,26.31
49556171,2235,1,204547,247185,1.36,0.20,6.59,0.05,-0.07,0.06,26.31
49596140,2215,1,204359,247963,1.41,0.18,7.41,-0.08,0.04,0.01,26.31
49636143,2042,1,206051,252475,2.12,-0.15,9.26,0.10,-0.03,-0.15,26.31
49676175,1937,1,207243,255447,1.34,-0.90,8.81,-0.04,0.03,-0.06,26.31
49716175,1360,1,206555,251265,2.06,0.16,8.78,-0.07,-0.11,-0.02,26.31
49756172,1494,1,204368,250809,0.64,-2.16,8.42,-0.01,-0.05,0.04,26.31
49796174,1292,1,204927,248775,2.21,0.34,9.42,0.01,0.04,-0.01,26.31
49836140,1394,1,203909,251555,0.73,-0.29,11.86,0.11,-0.00,0.29,26.31
49876161,1440,1,205829,254196,2.45,0.11,10.39,-0.08,0.06,-0.08,26.31
49916162,1415,1,205033,251774,0.49,1.35,9.18,0.02,-0.06,0.06,26.31
49956140,1571,1,204315,251763,1.62,0.60,12.21,-0.01,0.08,0.08,26.31
49996140,1661,1,204525,250036,0.19,0.10,10.64,-0.16,-0.04,0.31,26.31
50036162,1535,1,205102,249382,1.88,0.40,12.65,0.01,-0.07,0.22,26.31
50076141,1607,1,206434,250118,1.84,-0.04,11.15,-0.11,-0.07,0.40,26.31
50116174,1409,1,207325,250573,1.07,-0.99,9.20,-0.34,0.03,0.08,26.31
50156161,1008,1,207619,249936,0.27,1.58,6.17,-0.20,-0.01,-0.11,26.31
50196172,1153,1,207299,249530,3.00,0.51,11.21,0.38,-0.21,-0.24,26.31
50236162,1267,1,205616,249567,1.50,1.16,7.33,-0.31,0.06,-0.09,26.31
50276161,1279,1,206330,251609,3.87,-0.30,8.27,0.18,-0.09,-0.39,26.31
50316175,1477,1,206160,254625,2.38,1.58,9.44,-0.04,-0.18,-0.01,26.31
50356862,1407,1,206545,251618,1.87,0.22,10.09,0.09,-0.09,-0.34,26.49
50395162,2009,1,204722,247667,1.60,0.07,7.77,-0.07,-0.07,0.23,26.49
50435162,2060,1,205226,247801,2.21,0.08,11.24,0.32,-0.21,0.08,26.49
50475139,2256,1,205843,247099,0.68,-1.31,9.43,-0.18,0.21,0.35,26.49
50515162,2352,1,205722,246619,2.67,1.07,10.36,0.25,0.15,-0.07,26.49
50555141,2559,1,206333,247538,0.46,-0.31,10.11,-0.27,0.28,0.25,26.49
50595162,2375,1,206103,249379,0.99,-0.45,9.29,-0.01,0.15,-0.11,26.49
50635171,2289,1,206466,250843,1.51,0.90,12.01,0.31,-0.23,-0.30,26.49
50675162,2237,1,206601,253309,0.39,-0.68,11.20,-0.06,0.09,-0.02,26.49
50715171,2059,1,206684,253573,1.26,0.69,13.18,-0.00,-0.05,-0.04,26.49
50755195,714,1,206466,254882,1.04,0.59,11.62,-0.12,0.03,0.10,26.49
50795141,0,1,206668,254025,1.42,0.97,11.94,-0.03,0.00,-0.07,26.49
50835162,0,1,206417,254676,0.57,-0.45,12.39,-0.14,-0.04,0.21,26.49
50875173,0,1,206525,253091,1.65,-0.50,9.48,-0.06,-0.08,0.02,26.49
50915174,0,1,206461,253313,0.88,-0.11,10.25,-0.09,-0.03,0.04,26.49
50955189,0,1,206191,250567,1.21,-0.27,7.47,-0.09,-0.04,0.02,26.49
50995176,150,1,206366,251862,0.74,-0.04,10.04,-0.02,-0.03,0.02,26.49
51035174,383,1,206099,249312,1.74,-0.67,9.20,-0.04,-0.07,-0.12,26.49
51075197,610,1,205362,249238,1.31,-0.89,8.91,-0.02,-0.10,0.01,26.49
51115175,732,1,205319,248642,1.88,-0.13,8.77,0.02,-0.11,-0.24,26.49
51155176,999,1,204893,248162,1.13,-0.69,9.19,-0.01,-0.05,0.04,26.49
51195172,1527,1,204653,247058,1.98,0.32,9.23,0.02,-0.04,-0.03,26.49
51235162,1812,1,204728,248932,1.24,-1.89,11.60,-0.06,0.06,0.14,26.49
51275162,2023,1,205276,250217,1.82,-0.23,7.82,-0.01,0.01,-0.01,26.49
51315174,2165,1,206085,253746,1.44,-0.43,10.37,0.02,0.06,0.01,26.49
51355142,2143,1,207180,255081,1.52,0.17,9.07,-0.03,0.07,-0.03,26.49
51395849,2158,1,207930,255639,1.16,0.35,10.25,0.02,0.05,-0.13,26.43
51434142,2169,1,207862,255234,1.52,-0.23,9.75,-0.01,0.02,-0.10,26.43
51474175,2128,1,208198,256318,1.25,-0.18,10.97,0.01,-0.02,-0.08,26.43
51514174,1600,1,208188,256421,1.30,0.03,9.05,-0.10,0.01,-0.07,26.43
51554162,1703,1,208323,257489,0.67,-0.04,11.14,0.01,-0.05,-0.05,26.43
51594175,1671,1,208217,257405,1.36,0.03,10.19,-0.10,-0.02,-0.04,26.43
51634175,1643,1,208214,257854,0.96,-0.29,12.41,-0.06,-0.03,-0.01,26.43
51674197,1643,1,207975,257021,1.20,-0.10,9.59,-0.17,0.01,-0.00,26.43
51714175,1643,1,207794,257009,1.07,-0.41,11.85,-0.06,-0.05,-0.13,26.43
51754197,1599,1,207604,256477,1.30,-0.35,9.99,-0.20,0.04,-0.05,26.43
51794176,1483,1,207677,256711,1.07,-0.62,10.41,-0.13,-0.03,-0.10,26.43
51834197,1406,1,207705,256842,1.20,-0.86,10.38,-0.13,-0.03,-0.03,26.43
51874198,1389,1,207384,255751,0.91,-0.32,9.04,-0.10,-0.05,0.06,26.43
51914177,747,1,207436,255737,0.82,-2.01,9.69,-0.20,0.11,-0.05,26.43
51954176,432,1,207525,257034,1.03,-0.95,8.81,-0.11,0.03,-0.06,26.43
51994177,2112,1,209116,259028,0.84,-1.47,9.63,-0.15,0.09,-0.34,26.43
52034178,1744,1,208469,257751,0.55,-1.05,8.00,-0.09,-0.01,0.00,26.43
52074176,1652,1,208707,257297,0.67,-1.23,10.53,-0.09,0.10,-0.03,26.43
52114177,1640,1,207282,256187,0.26,-1.64,7.88,-0.12,0.01,0.21,26.43
52154168,1633,1,207416,257492,0.99,-1.89,10.00,-0.11,0.06,-0.02,26.43
52194177,1392,1,207619,258229,0.53,-1.73,8.93,-0.09,0.01,-0.03,26.43
52234177,1247,1,207929,257948,0.59,-0.94,9.92,-0.10,0.12,-0.04,26.43
52274177,1269,1,207656,257651,0.29,-1.18,9.81,-0.05,0.05,-0.03,26.43
52314177,1339,1,207363,257319,0.82,-1.23,9.38,-0.06,0.04,-0.04,26.43
52354177,1397,1,207464,255711,0.37,-1.84,10.33,-0.02,0.06,-0.03,26.43
52394176,1434,1,205889,254284,1.09,-1.41,9.31,-0.04,-0.03,-0.03,26.43
52434887,1484,1,207623,255917,-0.26,-1.70,10.12,-0.07,0.11,-0.04,26.41
52473198,1463,1,206643,255684,0.93,-0.53,10.16,0.03,-0.05,-0.03,26.41
52513177,1457,1,207828,257526,0.13,-1.93,11.66,-0.04,0.07,-0.00,26.41
52553177,1460,1,206944,257092,0.87,-1.39,9.77,-0.00,-0.10,0.00,26.41
52593190,1579,1,207924,258185,0.22,-1.79,10.85,-0.04,0.04,-0.04,26.41
52633177,1664,1,207833,259610,0.43,-0.76,10.40,0.02,-0.03,-0.04,26.41
52673177,1613,1,208325,259229,0.72,-1.50,11.71,0.00,-0.05,-0.15,26.41
52713177,1612,1,208124,259923,0.25,-0.93,11.26,0.02,-0.01,-0.04,26.41
52753177,1606,1,207873,258020,0.67,-0.96,10.55,-0.02,-0.05,-0.06,26.41
52793198,1348,1,206994,257700,0.31,-1.23,9.80,0.01,-0.04,-0.04,26.41
52833177,1471,1,206271,254556,0.75,-0.88,8.40,-0.07,-0.10,-0.05,26.41
52873197,1948,1,205590,255632,0.60,-0.71,10.69,0.01,0.02,0.00,26.41
52913152,1967,1,205693,253092,1.16,-0.29,8.32,-0.06,-0.08,-0.05,26.41
52953197,2117,1,205338,254635,0.29,-0.95,9.21,-0.01,0.02,-0.04,26.41
52993176,2034,1,205842,253940,1.05,-0.69,8.38,-0.03,-0.05,-0.05,26.41
53033198,2002,1,205941,256126,0.67,-0.96,9.83,0.02,0.01,-0.04,26.41
53073163,1961,1,206440,256330,0.93,-0.88,9.97,-0.01,-0.04,-0.05,26.41
53113198,1887,1,206944,258233,0.58,-0.33,10.73,0.02,-0.01,-0.04,26.41
53153176,1981,1,206834,258365,1.28,-0.25,11.17,0.02,-0.06,-0.04,26.41
53193176,2213,1,206695,258701,0.58,-0.85,11.05,-0.00,0.00,-0.04,26.41
53233175,2283,1,206575,258510,1.10,-0.79,11.61,0.01,-0.07,-0.04,26.41
53273176,2208,1,206443,257462,0.88,-0.72,9.90,-0.04,-0.06,-0.04,26.41
53313197,2201,1,206256,258305,0.56,-0.91,11.23,-0.03,0.01,-0.04,26.41
53353176,2149,1,206202,256192,0.78,-0.11,10.43,-0.06,-0.02,-0.04,26.41
53393197,2217,1,205336,256122,0.95,-0.07,10.62,0.02,-0.07,-0.04,26.41
53434175,2165,1,205669,255332,0.61,-0.54,9.77,-0.08,0.02,-0.05,26.41
53474863,2161,1,204663,254274,1.38,-0.72,8.76,0.01,-0.16,-0.05,26.43
53513175,1983,1,205149,255006,1.21,-0.35,8.17,-0.09,-0.01,-0.05,26.43
53553198,1894,1,205735,256965,1.06,-0.99,9.17,-0.06,-0.01,-0.05,26.43
53593198,1683,1,206574,256245,0.72,-0.11,8.91,-0.06,0.01,-0.06,26.43
53633176,1463,1,205976,256745,1.15,-0.96,10.38,0.03,-0.05,-0.05,26.43
53673176,1472,1,206026,256241,0.85,-1.45,8.17,-0.09,0.00,-0.05,26.43
53713176,1569,1,205533,254734,1.02,-0.66,9.88,0.01,-0.03,-0.05,26.43
53753176,1813,1,204672,251665,1.14,-1.70,9.29,-0.04,0.03,-0.03,26.43
53793176,1793,1,205282,252166,0.06,-0.29,9.10,-0.04,0.15,-0.08,26.43
53833176,1557,1,204066,250562,1.90,-0.11,10.31,0.01,-0.05,0.07,26.43
53873162,1679,1,203409,250000,0.37,-0.93,9.69,-0.08,0.05,0.12,26.43
53913162,1971,1,202387,247460,0.85,-1.42,7.95,-0.08,-0.03,0.20,26.43
53953175,1986,1,202050,246837,0.80,-1.13,9.95,-0.05,0.07,0.10,26.43
53993161,2021,1,202224,249669,0.74,-0.47,9.16,-0.08,0.06,-0.03,26.43
54033181,1830,1,204726,253315,0.66,-1.45,12.22,-0.08,0.12,-0.13,26.43
54073177,1753,1,204594,254031,0.88,-0.47,9.94,-0.07,-0.02,-0.05,26.43
54113197,1787,1,205108,255036,0.65,-1.37,12.30,-0.01,0.05,-0.06,26.43
54153175,1868,1,204979,255682,0.72,-1.36,10.15,-0.07,-0.11,-0.01,26.43
54193197,1676,1,205550,255784,0.51,-0.79,10.98,-0.05,-0.00,-0.16,26.43
54233219,1627,1,205546,256534,0.70,-0.44,10.69,-0.04,-0.01,-0.04,26.43
54273196,1473,1,205667,255937,1.01,0.53,11.07,-0.08,-0.00,-0.14,26.43
54313175,1393,1,204783,255747,1.73,-0.65,9.97,-0.06,-0.13,-0.05,26.43
54353197,1203,1,205166,254330,0.27,-0.41,10.56,-0.08,0.04,-0.12,26.43
54393175,1397,1,204019,254305,0.80,-0.29,11.64,0.06,-0.10,-0.05,26.43
54433175,1203,1,203935,250531,0.95,-1.11,9.69,-0.06,-0.10,-0.01,26.43
54472196,1293,1,202155,246245,-0.21,-1.66,5.94,-0.16,-0.11,0.16,26.43
54512884,1198,1,202351,249001,1.56,-0.49,10.45,-0.02,0.06,-0.01,26.41
54553176,1088,1,203392,246575,1.03,1.09,7.18,-0.09,-0.09,-0.04,26.41
54593174,1503,1,202860,249472,0.81,-2.97,11.27,0.03,0.01,-0.08,26.41
54633162,2927,1,204042,249132,1.14,-0.86,7.52,-0.09,-0.02,-0.00,26.41
54673195,2847,1,203276,246857,1.45,-1.46,7.15,0.15,-0.40,0.04,26.41
54713162,2800,1,204212,252825,0.50,-1.52,8.37,-0.08,0.18,-0.04,26.41
54753177,2594,1,206794,255061,1.91,-0.38,6.80,0.11,0.03,-0.81,26.41
54793162,1841,1,208082,259767,0.05,-0.16,11.02,0.23,-0.04,-0.00,26.41
54833176,1535,1,209437,259832,1.45,-0.21,11.45,-0.02,0.04,-0.36,26.41
54873177,1569,1,209169,260836,-0.07,-1.99,6.55,0.08,-0.07,0.17,26.41
54913177,1594,1,209699,258874,1.24,-0.69,10.57,0.07,-0.05,-0.06,26.41
54953176,1559,1,208561,261137,0.39,-1.93,10.34,-0.00,-0.03,-0.01,26.41
54993199,1665,1,209322,257769,0.80,2.17,7.38,-0.14,0.05,-0.26,26.41
55033168,1597,1,207710,257872,1.12,-0.77,11.45,0.13,0.01,0.00,26.41
55071155,1695,1,207683,254128,-0.41,-0.45,8.82,-0.14,0.11,-0.01,26.41
55111198,1587,1,206269,256574,0.77,-1.20,14.37,0.11,-0.02,0.11,26.41
55151168,1740,1,205859,253088,1.65,1.28,8.50,-0.03,-0.15,-0.03,26.41
55191177,1584,1,205254,255794,0.48,-0.60,10.82,0.02,-0.06,-0.01,26.41
55231175,1584,1,205339,255967,2.15,1.32,11.85,-0.06,-0.04,-0.04,26.41
55271176,1584,1,205279,254295,1.50,0.61,10.76,0.04,-0.23,-0.01,26.41
55311162,1821,1,204246,253777,2.18,1.45,11.02,-0.05,-0.05,-0.02,26.41
55351175,1805,1,204302,249815,0.76,-0.00,7.81,-0.14,0.03,-0.00,26.41
55391175,1986,1,203123,247005,0.61,-0.70,8.92,-0.08,-0.05,0.19,26.41
55431173,1827,1,203342,247040,1.01,-1.16,10.86,-0.03,0.09,0.02,26.41
55472162,2011,1,203045,247560,1.69,0.17,7.09,-0.02,-0.15,-0.05,26.41
55512176,1827,1,204566,252186,1.08,-1.01,9.11,-0.09,0.08,-0.24,26.41
55552864,2043,1,205666,254694,1.28,0.32,8.40,-0.01,-0.02,-0.14,26.43
55591177,1793,1,206601,255509,0.93,-0.30,11.11,0.03,-0.03,-0.02,26.43
55631175,1802,1,205381,256148,1.97,-0.20,8.99,0.05,-0.17,-0.03,26.43
55671177,918,1,206504,256169,0.58,-0.71,9.95,-0.10,0.11,0.01,26.43
55711168,1213,1,205552,254724,1.71,-1.80,9.61,0.04,-0.11,-0.03,26.43
55751177,743,1,205713,254340,1.05,0.76,11.43,-0.04,0.09,-0.04,26.43
55791168,914,1,205767,255837,0.22,0.13,9.20,-0.08,0.10,-0.01,26.43
55831163,1767,1,205494,252744,1.75,1.49,9.31,0.01,0.01,-0.03,26.43
55871156,1585,1,206283,257338,0.43,-0.95,12.79,-0.02,0.13,0.01,26.43
55911168,1583,1,205261,252158,2.28,2.25,8.38,-0.21,-0.07,-0.10,26.43
55951176,1573,1,204470,252300,0.13,-1.91,10.56,-0.08,0.08,0.05,26.43
55991162,1569,1,203801,249967,1.05,0.17,7.54,-0.11,-0.02,0.04,26.43
56031169,1152,1,205498,256143,0.92,0.10,14.16,0.07,0.06,-0.05,26.43
56071154,1833,1,205922,254642,1.71,1.68,6.26,-0.20,0.04,-0.15,26.43
56111169,1747,1,206720,256618,0.96,-1.23,11.28,-0.05,0.01,-0.01,26.43
56151178,1658,1,205982,254391,0.89,-0.56,8.63,-0.05,-0.05,0.08,26.43
56191178,1535,1,205368,256449,1.32,0.28,10.60,0.08,-0.05,0.06,26.43
56231154,1654,1,206396,256790,1.27,0.81,10.03,-0.13,0.01,-0.03,26.43
56271169,1535,1,206040,257676,1.29,-1.61,9.74,-0.07,-0.06,-0.03,26.43
56311199,1535,1,205915,255054,1.11,0.52,9.96,-0.04,-0.04,-0.03,26.43
56351176,1535,1,204477,254906,0.34,-1.05,10.49,0.01,0.05,0.22,26.43
56391153,1535,1,204741,252775,1.72,-0.44,10.25,-0.01,0.01,-0.02,26.43
56431177,2035,1,203526,252533,0.76,-0.33,10.55,0.04,-0.11,-0.02,26.43
56471178,2005,1,204016,249910,1.21,-0.72,9.52,-0.16,0.03,-0.05,26.43
56510176,2319,1,202531,249688,1.05,-1.22,11.16,0.05,-0.17,-0.00,26.43
56550175,1872,1,203120,247129,0.62,-1.84,8.46,-0.07,0.00,-0.02,26.43
56590863,1687,1,202653,247475,1.11,-1.42,10.70,0.08,-0.07,-0.05,26.41
56631177,1435,1,203782,249304,0.70,-1.15,9.78,-0.02,0.04,-0.04,26.41
56671177,1413,1,203379,250237,1.18,-0.66,7.77,0.07,-0.18,-0.02,26.41
56711178,1185,1,204856,251524,1.09,-1.62,9.28,-0.05,0.05,-0.14,26.41
56751177,1363,1,203829,250471,0.52,-1.35,6.11,0.01,-0.14,0.08,26.41
56791168,1340,1,205127,253665,0.40,-1.73,11.77,0.11,0.05,-0.02,26.41
56831162,2064,1,204690,254198,0.89,-1.26,8.95,-0.01,-0.11,-0.01,26.41
56871199,2495,1,205176,255472,0.84,-0.81,11.20,-0.06,0.08,-0.03,26.41
56911177,2633,1,204555,252687,0.86,0.30,8.82,0.03,-0.05,0.07,26.41
56951143,2451,1,203211,250802,0.98,-1.34,12.00,0.14,0.04,0.32,26.41
56991144,2111,1,202908,250210,2.00,-0.41,11.43,0.01,-0.02,0.37,26.41
57031162,2224,1,203003,249690,0.57,-0.60,6.29,-0.09,-0.04,0.00,26.41
57071177,1885,1,203149,253425,1.66,-1.10,11.68,-0.12,0.02,-0.06,26.41
57111176,1854,1,204070,251670,0.95,-0.72,10.18,-0.07,0.08,-0.27,26.41
57151175,2369,1,202589,248354,0.30,-0.39,10.45,0.21,-0.41,-0.01,26.41
57191175,2754,1,203273,251161,-1.09,-3.31,14.32,-0.04,0.34,0.08,26.41
57231174,2791,1,203605,247028,-1.01,2.28,2.43,-0.13,-0.42,0.16,26.41
57271174,3357,1,203563,250960,2.04,0.36,14.67,-0.12,0.14,-0.18,26.41
57311205,3376,1,203997,250457,2.05,1.36,6.14,-0.21,0.10,-0.12,26.41
57351162,3443,1,204424,251945,1.08,-0.93,13.30,-0.12,0.07,-0.15,26.41
57391174,3396,1,204490,249675,3.15,1.41,7.81,-0.03,-0.19,-0.06,26.41
57431174,3367,1,204252,250564,1.25,-0.52,11.57,-0.07,-0.05,0.02,26.41
57471174,3382,1,204077,247613,2.17,-0.47,7.00,-0.10,-0.17,-0.03,26.41
57511231,3030,1,204024,250018,1.23,-0.74,10.97,-0.06,0.03,-0.06,26.41
57551175,3094,1,204245,249357,1.77,-0.19,6.19,-0.14,0.03,-0.10,26.41
57591862,2448,1,204826,252660,1.63,-0.06,11.63,0.15,-0.07,-0.53,26.49
57630175,2821,1,205130,253554,0.90,1.05,7.99,-0.11,0.10,0.07,26.49
57670142,2128,1,205507,254030,1.03,-1.10,12.67,0.04,-0.05,0.09,26.49
57710162,2448,1,204843,253376,1.90,-1.33,9.26,-0.01,-0.06,0.08,26.49
57750175,2297,1,204950,253932,0.34,-0.10,9.13,-0.01,0.03,0.00,26.49
57790162,2386,1,204504,249906,1.19,-0.04,9.81,-0.05,0.11,-0.02,26.49
57830174,2277,1,203287,247886,0.01,-1.24,10.86,0.00,0.08,0.05,26.49
57870143,2112,1,203108,246730,0.56,0.75,10.12,0.03,0.02,-0.01,26.49
57910141,1938,1,202833,247035,0.85,-0.41,9.16,-0.01,0.04,-0.01,26.49
57950175,1567,1,202721,248828,2.72,0.00,10.98,-0.03,-0.08,-0.01,26.49
57990174,851,1,204953,253418,0.88,-1.72,10.55,-0.04,0.03,-0.10,26.49
58030175,115,1,204815,253664,1.86,0.40,8.84,-0.06,-0.10,0.01,26.49
58070162,0,1,205263,254772,0.74,-1.03,13.63,-0.05,0.05,0.05,26.49
58110162,0,1,204763,254234,1.30,0.25,8.13,0.01,-0.16,0.11,26.49
58150143,0,1,205797,256244,-0.05,-1.18,13.79,-0.03,0.13,0.01,26.49
58190176,0,1,205463,255019,1.18,0.55,10.54,-0.03,-0.01,0.09,26.49
58230162,0,1,204831,254355,1.07,-1.04,11.85,0.02,-0.21,0.05,26.49
58270162,0,1,203919,252491,0.68,-0.02,7.44,-0.12,-0.13,0.09,26.49
58310173,0,1,203957,252324,0.52,-0.21,9.82,-0.04,0.03,-0.00,26.49
58350175,0,1,203547,250414,1.43,-0.35,8.86,-0.03,-0.10,-0.02,26.49
58390194,272,1,203719,252024,0.56,-0.14,10.94,-0.01,0.10,-0.05,26.49
58430175,453,1,203557,249543,0.93,0.62,7.26,-0.05,-0.17,-0.03,26.49
58470173,803,1,202678,249583,1.58,-0.26,10.59,0.05,-0.04,-0.22,26.49
58510175,907,1,203001,248618,0.35,-0.22,8.18,-0.17,0.08,-0.03,26.49
58550176,1068,1,202751,250360,1.28,-0.36,9.57,0.11,-0.04,-0.20,26.49
58590177,1055,1,204078,251972,1.01,0.45,10.47,-0.03,0.09,-0.02,26.49
58630850,1048,1,204334,254003,0.40,-0.57,9.36,0.06,-0.01,-0.01,26.53
58669175,884,1,204708,252933,1.37,0.44,9.82,0.00,-0.02,-0.05,26.53
58709162,945,1,204645,254281,-0.35,0.22,9.43,0.02,0.05,-0.00,26.53
58749162,906,1,205051,254198,0.73,-0.20,9.10,-0.01,0.07,-0.01,26.53
58789173,1945,1,205779,256494,0.85,1.33,9.78,0.02,-0.00,-0.00,26.53
58829162,1808,1,207831,259956,0.70,1.51,9.51,-0.03,0.08,-0.01,26.53
58869162,1957,1,209008,259765,0.96,2.74,10.72,0.00,0.00,0.02,26.53
58909130,1889,1,207581,258745,1.17,0.89,11.48,-0.04,-0.11,0.06,26.53
58949213,1750,1,206828,257773,0.65,0.18,11.31,-0.08,0.01,-0.01,26.53
58989162,1642,1,205345,254255,0.28,1.14,9.47,-0.06,-0.02,0.10,26.53
59029162,1643,1,204398,255904,0.00,0.39,14.26,-0.09,0.13,0.34,26.53
59069156,1642,1,204314,254071,1.30,1.69,8.94,-0.06,-0.10,-0.02,26.53
59109176,2217,1,203851,254379,-0.39,-0.12,12.85,-0.08,0.01,0.06,26.53
59149232,2138,1,203214,250355,1.14,1.72,8.85,-0.17,0.01,-0.02,26.53
59189162,2251,1,201936,248492,-0.62,0.00,9.76,-0.02,-0.18,0.46,26.53
59229176,2109,1,202432,248068,1.06,0.56,6.59,-0.14,0.05,-0.02,26.53
59269162,2369,1,202763,251373,0.63,0.64,8.97,-0.05,-0.06,-0.01,26.53
59309176,1709,1,205279,252522,-0.12,-0.07,9.17,-0.10,0.05,-0.46,26.53
59349197,1758,1,203960,249324,1.93,1.15,7.98,0.02,-0.13,-0.26,26.53
59389168,1619,1,204084,249943,-1.42,-1.33,9.89,-0.16,0.22,-0.02,26.53
59429196,1611,1,203264,248247,1.47,1.17,9.06,0.17,-0.21,-0.02,26.53
59469162,1615,1,204229,254137,-0.38,-0.15,13.12,-0.08,0.08,-0.02,26.53
59509195,1616,1,205113,252721,-0.34,0.25,5.07,0.05,0.08,-0.23,26.53
59549162,1990,1,204442,254138,0.95,1.78,12.51,0.04,-0.05,-0.02,26.53
59589162,1751,1,205586,255881,-0.12,0.52,13.02,-0.08,0.18,-0.02,26.53
59629175,2249,1,205432,257149,2.86,3.71,8.93,0.07,-0.29,-0.13,26.53
59669849,1930,1,206973,258649,0.86,-1.44,12.58,-0.05,0.09,-0.32,26.43
59708175,2377,1,206214,258497,1.32,4.06,10.88,-0.10,-0.06,-0.12,26.43
59748172,1971,1,206269,257209,0.09,-0.27,14.18,-0.07,-0.01,-0.02,26.43
59788196,2951,1,205071,253608,0.36,2.56,6.93,-0.06,-0.17,0.01,26.43
59828162,2139,1,204415,250217,0.07,0.23,16.12,-0.23,0.11,0.14,26.43
59868142,2291,1,202956,247407,-1.30,0.05,4.31,-0.07,0.09,0.07,26.43
59908162,2032,1,204269,248651,0.68,0.28,11.47,-0.09,0.03,-0.06,26.43
59948162,2352,1,204738,254964,-0.55,1.30,9.17,0.05,-0.06,-0.04,26.43
59988175,1849,1,207491,257629,0.90,2.71,8.80,0.01,-0.05,-0.40,26.43
60028168,2142,1,208104,256100,0.06,-0.09,11.60,-0.01,0.01,-0.18,26.43
60068173,1533,1,205204,254279,-0.07,1.20,7.68,0.05,-0.10,0.11,26.43
60108162,1580,1,204482,251439,1.36,1.70,10.25,-0.07,-0.16,0.03,26.43
60148186,1585,1,203400,252106,-0.22,-1.40,7.19,-0.01,-0.03,0.40,26.43
60188200,1901,1,205947,252713,1.95,-1.44,8.53,-0.03,0.07,-0.58,26.43
60228177,1603,1,205329,257885,-0.73,-1.03,7.02,0.07,-0.04,-0.02,26.43
60268197,1665,1,211147,262143,1.24,-0.81,13.41,0.01,0.13,-0.69,26.43
60308162,1809,1,212437,262143,0.73,2.35,8.37,0.03,-0.00,-0.21,26.43
60348162,1983,1,214285,262143,-0.81,-2.31,14.41,0.05,-0.02,-0.03,26.43
60388197,2000,1,213007,262143,0.35,-0.13,8.85,-0.13,0.11,-0.07,26.43
60428176,1902,1,213910,262143,-0.67,-0.56,14.53,0.06,-0.07,0.07,26.43
60468176,2190,1,213375,261944,-1.31,-1.16,8.68,-0.14,0.09,-0.12,26.43
60508198,2074,1,211453,260794,0.93,0.47,12.82,0.00,-0.07,-0.05,26.43
60548168,2207,1,211817,259494,-1.89,-2.40,11.41,-0.18,0.12,-0.05,26.43
60588232,1518,1,207264,250753,0.62,1.81,3.73,-0.09,-0.19,0.18,26.43
60628162,1573,1,206930,251228,-0.48,-3.00,13.49,-0.40,0.25,0.09,26.43
60668178,1575,1,203251,246075,-0.78,-0.30,4.09,-0.17,-0.12,0.15,26.43
60708887,624,1,202129,246530,2.38,1.55,12.63,-0.12,-0.14,0.05,26.47
60749162,1213,1,203945,251852,-0.64,-0.58,8.01,-0.29,0.17,-0.05,26.47
60789231,1746,1,205003,248519,1.35,-0.28,7.49,-0.13,-0.10,-0.07,26.47
60829198,2209,1,204555,250196,-0.74,-2.63,10.92,-0.15,0.08,-0.03,26.47
60869198,2374,1,203550,246195,0.37,-0.81,8.15,-0.07,-0.07,-0.05,26.47
60909198,2042,1,203967,251072,0.17,-2.36,12.73,0.00,0.03,-0.02,26.47
60949168,1579,1,206565,254865,0.06,-0.94,8.48,-0.05,0.01,-0.06,26.47
60987177,1718,1,208671,257927,1.45,-1.58,12.36,0.07,-0.05,-0.10,26.47
61027178,1806,1,209852,258563,-0.23,-1.86,9.66,-0.04,0.06,-0.02,26.47
61067199,1713,1,208823,254896,1.01,-0.02,9.48,0.04,-0.04,-0.06,26.47
61107177,2174,1,208815,255638,0.39,-2.04,9.13,0.01,-0.01,-0.05,26.47
61147177,2125,1,208782,253114,0.83,0.41,8.77,-0.01,0.03,-0.06,26.47
61187168,2129,1,208950,254442,-0.28,-1.38,10.41,0.01,0.08,-0.05,26.47
61227177,1925,1,209202,254621,1.40,-0.01,9.91,0.05,-0.02,-0.09,26.47
61267177,2129,1,210189,255124,0.30,-0.88,10.88,0.01,-0.00,-0.08,26.47
61307177,1945,1,208746,254285,1.08,-0.40,7.91,-0.04,-0.05,-0.08,26.47
61347199,1987,1,210855,256251,-0.12,-0.85,11.03,0.03,0.00,-0.16,26.47
61387177,1719,1,210918,259091,0.15,-1.43,8.89,-0.01,0.01,-0.06,26.47
61427177,2109,1,211820,259436,0.62,-0.03,10.92,0.00,-0.08,-0.16,26.47
61467177,1935,1,211844,259485,0.23,-1.91,10.96,-0.03,-0.02,-0.05,26.47
61507199,1954,1,210841,257560,0.83,0.72,10.09,-0.01,-0.10,-0.06,26.47
61547178,1830,1,211132,258994,-0.06,-1.58,12.05,0.00,-0.06,-0.05,26.47
61587199,1979,1,210341,258658,1.06,-0.28,10.25,-0.10,-0.11,-0.06,26.47
61627200,1830,1,211117,258672,0.66,-1.11,11.55,-0.01,-0.09,-0.05,26.47
61667199,1776,1,210006,257899,0.61,-0.89,8.46,-0.09,-0.07,-0.06,26.47
